Subj,Trial,Order,conditio,item,Resp,Name,Stim,RT,Correct,resp_corr,typisch
1,1,115,!sphigh,!Kuh_Hut,45,X,"""X""",499,True,1,1
1,2,52,!splow,!Kuh_Stiefel,24,O,"""O""",526,True,1,1
1,3,85,!sphigh,!sho_Duschkopf,45,X,"""X""",575,True,1,1
1,4,71,!splow,!sho_dRegen,24,O,"""O""",638,True,1,1
1,5,101,!sphigh,!ele_Ohr,45,X,"""X""",1328,True,1,1
1,6,108,!splow,!ele_Fuß,24,O,"""O""",685,True,1,1
1,7,96,!sphigh,!tab_clot,45,X,"""X""",671,True,1,1
1,8,98,!splow,!tab_Bein,24,O,"""O""",607,True,1,1
1,9,74,!sphigh,!hou_atti,45,X,"""X""",571,True,1,1
1,10,83,!splow,!hou_cell,24,O,"""O""",732,True,1,1
1,11,75,!sphigh,!tre_leav,45,X,"""X""",525,True,1,1
1,12,124,!splow,!tre_root,24,O,"""O""",707,True,1,1
1,13,51,!sphigh,!sho_lace,45,X,"""X""",519,True,1,1
1,14,28,!splow,!sho_sole,24,O,"""O""",730,True,1,1
1,15,31,!sphigh,!des_Lampe,45,X,"""X""",672,True,1,2
1,16,62,!splow,!des_draw,24,O,"""O""",462,True,1,2
1,17,126,!sphigh,!bot_Deckel,45,X,"""X""",411,True,1,2
1,18,57,!splow,!bot_coas,24,O,"""O""",591,True,1,2
1,19,110,!sphigh,!oce_surf,45,X,"""X""",804,True,1,2
1,20,84,!splow,!oce_floo,24,O,"""O""",936,True,1,2
1,21,78,!sphigh,!Auto_wind,45,X,"""X""",646,True,1,2
1,22,102,!splow,!Auto_whee,24,O,"""O""",526,True,1,2
1,23,86,!sphigh,!cor_stal,45,X,"""X""",745,True,1,2
1,24,132,!splow,!cor_see,24,O,"""O""",464,True,1,2
1,25,99,!sphigh,!bea_snou,45,X,"""X""",665,True,1,2
1,26,19,!splow,!bea_Klaue,24,O,"""O""",441,True,1,2
1,27,87,!sphigh,!bir_Auge,45,X,"""X""",496,True,1,2
1,28,72,!splow,!bir_talo,24,O,"""O""",462,True,1,2
1,29,18,!sphigh,!hor_Mähne,45,X,"""X""",397,True,1,2
1,30,22,!splow,!hor_hoov,24,O,"""O""",574,True,1,2
1,31,76,!sphigh,!bic_Sitz,24,O,"""O""",488,True,1,2
1,32,127,!splow,!bic_Reifen,45,X,"""X""",566,True,1,2
1,33,66,!sphigh,!bed_curt,45,X,"""O""",690,False,0,2
1,34,60,!splow,!bed_Autop,45,X,"""X""",575,True,1,2
1,35,91,!sphigh,!flo_peta,24,O,"""O""",603,True,1,2
1,36,21,!splow,!flo_Stiel,45,X,"""X""",400,True,1,2
1,37,77,!sphigh,!hot_Dach,24,O,"""O""",1035,True,1,2
1,38,111,!splow,!hot_lobb,45,X,"""X""",650,True,1,2
1,39,116,!sphigh,!mus_Deckel,24,O,"""O""",520,True,1,2
1,40,55,!splow,!mus_stal,45,X,"""X""",1094,True,1,2
1,41,80,!sphigh,!bro_hand,24,O,"""O""",520,True,1,2
1,42,81,!splow,!bro_bris,45,X,"""X""",912,True,1,2
1,43,15,!sphigh,!mou_Gipfel,24,O,"""O""",492,True,1,2
1,44,30,!splow,!mou_Tal,45,X,"""X""",489,True,1,2
1,45,34,!sphigh,!rai_clou,24,O,"""O""",659,True,1,1
1,46,20,!splow,!rai_pudd,45,X,"""X""",594,True,1,1
1,47,88,!sphigh,!Hund_coll,24,O,"""O""",400,True,1,1
1,48,27,!splow,!Hund_paw,45,X,"""X""",469,True,1,1
1,49,104,!sphigh,!coc_Baum,24,O,"""O""",409,True,1,1
1,50,44,!splow,!coc_Milch,45,X,"""X""",703,True,1,1
1,51,56,!sphigh,!clo_towe,24,O,"""O""",473,True,1,1
1,52,106,!splow,!clo_radi,45,X,"""X""",563,True,1,1
1,53,73,!sphigh,!chu_stee,24,O,"""O""",513,True,1,1
1,54,38,!splow,!chu_Kirchenbank,45,X,"""X""",586,True,1,1
1,55,40,!sphigh,!ste_ligh,24,O,"""O""",429,True,1,1
1,56,95,!splow,!ste_cor,45,X,"""X""",769,True,1,1
1,57,65,!sphigh,!flo_Lampee,24,O,"""O""",428,True,1,1
1,58,94,!splow,!flo_Läufer,45,X,"""X""",735,True,1,1
1,59,59,!sphigh,!tro_buck,24,O,"""O""",649,True,1,1
1,60,58,!splow,!tro_Saum,45,X,"""X""",467,True,1,1
2,1,38,!sphigh,!Kuh_Hut,45,X,"""X""",449,True,1,1
2,2,54,!splow,!Kuh_Stiefel,24,O,"""O""",651,True,1,1
2,3,14,!sphigh,!sho_Duschkopf,45,X,"""X""",696,True,1,1
2,4,18,!splow,!sho_dRegen,24,O,"""O""",469,True,1,1
2,5,128,!sphigh,!ele_Ohr,45,X,"""X""",818,True,1,1
2,6,125,!splow,!ele_Fuß,24,O,"""O""",619,True,1,1
2,7,122,!sphigh,!tab_clot,45,X,"""X""",531,True,1,1
2,8,105,!splow,!tab_Bein,24,O,"""O""",516,True,1,1
2,9,86,!sphigh,!hou_atti,45,X,"""X""",650,True,1,1
2,10,61,!splow,!hou_cell,24,O,"""O""",447,True,1,1
2,11,53,!sphigh,!tre_leav,45,X,"""X""",567,True,1,1
2,12,118,!splow,!tre_root,24,O,"""O""",487,True,1,1
2,13,112,!sphigh,!sho_lace,45,X,"""X""",686,True,1,1
2,14,90,!splow,!sho_sole,24,O,"""O""",594,True,1,1
2,15,92,!sphigh,!des_Lampe,45,X,"""X""",386,True,1,2
2,16,62,!splow,!des_draw,24,O,"""O""",471,True,1,2
2,17,57,!sphigh,!bot_Deckel,45,X,"""X""",500,True,1,2
2,18,132,!splow,!bot_coas,24,O,"""O""",433,True,1,2
2,19,16,!sphigh,!oce_surf,45,X,"""X""",595,True,1,2
2,20,85,!splow,!oce_floo,24,O,"""O""",471,True,1,2
2,21,58,!sphigh,!Auto_wind,45,X,"""X""",639,True,1,2
2,22,27,!splow,!Auto_whee,24,O,"""O""",425,True,1,2
2,23,24,!sphigh,!cor_stal,45,X,"""X""",471,True,1,2
2,24,88,!splow,!cor_see,24,O,"""O""",483,True,1,2
2,25,89,!sphigh,!bea_snou,45,X,"""X""",479,True,1,2
2,26,59,!splow,!bea_Klaue,24,O,"""O""",621,True,1,2
2,27,129,!sphigh,!bir_Auge,45,X,"""X""",563,True,1,2
2,28,79,!splow,!bir_talo,24,O,"""O""",422,True,1,2
2,29,73,!sphigh,!hor_Mähne,45,X,"""X""",453,True,1,2
2,30,43,!splow,!hor_hoov,24,O,"""O""",448,True,1,2
2,31,37,!sphigh,!bic_Sitz,24,O,"""O""",523,True,1,2
2,32,55,!splow,!bic_Reifen,45,X,"""X""",421,True,1,2
2,33,26,!sphigh,!bed_curt,45,X,"""O""",534,False,0,2
2,34,52,!splow,!bed_Autop,45,X,"""X""",466,True,1,2
2,35,103,!sphigh,!flo_peta,24,O,"""O""",571,True,1,2
2,36,22,!splow,!flo_Stiel,45,X,"""X""",649,True,1,2
2,37,31,!sphigh,!hot_Dach,24,O,"""O""",561,True,1,2
2,38,56,!splow,!hot_lobb,45,X,"""X""",601,True,1,2
2,39,126,!sphigh,!mus_Deckel,24,O,"""O""",562,True,1,2
2,40,107,!splow,!mus_stal,45,X,"""X""",1036,True,1,2
2,41,119,!sphigh,!bro_hand,24,O,"""O""",639,True,1,2
2,42,69,!splow,!bro_bris,45,X,"""X""",585,True,1,2
2,43,82,!sphigh,!mou_Gipfel,24,O,"""O""",496,True,1,2
2,44,66,!splow,!mou_Tal,45,X,"""X""",520,True,1,2
2,45,35,!sphigh,!rai_clou,24,O,"""O""",532,True,1,1
2,46,15,!splow,!rai_pudd,45,X,"""X""",561,True,1,1
2,47,30,!sphigh,!Hund_coll,24,O,"""O""",405,True,1,1
2,48,74,!splow,!Hund_paw,45,X,"""X""",479,True,1,1
2,49,81,!sphigh,!coc_Baum,24,O,"""O""",434,True,1,1
2,50,109,!splow,!coc_Milch,45,X,"""X""",542,True,1,1
2,51,113,!sphigh,!clo_towe,24,O,"""O""",636,True,1,1
2,52,34,!splow,!clo_radi,45,X,"""X""",954,True,1,1
2,53,84,!sphigh,!chu_stee,24,O,"""O""",437,True,1,1
2,54,49,!splow,!chu_Kirchenbank,45,X,"""X""",943,True,1,1
2,55,39,!sphigh,!ste_ligh,24,O,"""O""",400,True,1,1
2,56,111,!splow,!ste_cor,45,X,"""X""",449,True,1,1
2,57,114,!sphigh,!flo_Lampee,24,O,"""O""",518,True,1,1
2,58,40,!splow,!flo_Läufer,45,X,"""X""",420,True,1,1
2,59,95,!sphigh,!tro_buck,24,O,"""O""",505,True,1,1
2,60,48,!splow,!tro_Saum,45,X,"""X""",607,True,1,1
3,1,82,!sphigh,!Kuh_Hut,45,X,"""X""",407,True,1,1
3,2,97,!splow,!Kuh_Stiefel,24,O,"""O""",446,True,1,1
3,3,42,!sphigh,!sho_Duschkopf,45,X,"""X""",513,True,1,1
3,4,109,!splow,!sho_dRegen,45,X,"""O""",291,False,0,1
3,5,64,!sphigh,!ele_Ohr,45,X,"""X""",450,True,1,1
3,6,70,!splow,!ele_Fuß,24,O,"""O""",390,True,1,1
3,7,110,!sphigh,!tab_clot,45,X,"""X""",442,True,1,1
3,8,107,!splow,!tab_Bein,24,O,"""O""",405,True,1,1
3,9,102,!sphigh,!hou_atti,45,X,"""X""",468,True,1,1
3,10,90,!splow,!hou_cell,24,O,"""O""",435,True,1,1
3,11,23,!sphigh,!tre_leav,24,O,"""X""",383,False,0,1
3,12,124,!splow,!tre_root,24,O,"""O""",367,True,1,1
3,13,85,!sphigh,!sho_lace,45,X,"""X""",469,True,1,1
3,14,111,!splow,!sho_sole,24,O,"""O""",364,True,1,1
3,15,100,!sphigh,!des_Lampe,45,X,"""X""",478,True,1,2
3,16,95,!splow,!des_draw,24,O,"""O""",470,True,1,2
3,17,41,!sphigh,!bot_Deckel,45,X,"""X""",456,True,1,2
3,18,59,!splow,!bot_coas,24,O,"""O""",480,True,1,2
3,19,43,!sphigh,!oce_surf,45,X,"""X""",423,True,1,2
3,20,52,!splow,!oce_floo,24,O,"""O""",448,True,1,2
3,21,40,!sphigh,!Auto_wind,45,X,"""X""",487,True,1,2
3,22,122,!splow,!Auto_whee,24,O,"""O""",413,True,1,2
3,23,87,!sphigh,!cor_stal,45,X,"""X""",344,True,1,2
3,24,58,!splow,!cor_see,24,O,"""O""",556,True,1,2
3,25,88,!sphigh,!bea_snou,45,X,"""X""",389,True,1,2
3,26,32,!splow,!bea_Klaue,24,O,"""O""",341,True,1,2
3,27,105,!sphigh,!bir_Auge,45,X,"""X""",375,True,1,2
3,28,89,!splow,!bir_talo,24,O,"""O""",418,True,1,2
3,29,84,!sphigh,!hor_Mähne,45,X,"""X""",414,True,1,2
3,30,14,!splow,!hor_hoov,24,O,"""O""",476,True,1,2
3,31,27,!sphigh,!bic_Sitz,24,O,"""O""",493,True,1,2
3,32,132,!splow,!bic_Reifen,45,X,"""X""",380,True,1,2
3,33,98,!sphigh,!bed_curt,24,O,"""O""",473,True,1,2
3,34,83,!splow,!bed_Autop,24,O,"""X""",342,False,0,2
3,35,127,!sphigh,!flo_peta,24,O,"""O""",363,True,1,2
3,36,86,!splow,!flo_Stiel,45,X,"""X""",465,True,1,2
3,37,44,!sphigh,!hot_Dach,45,X,"""O""",382,False,0,2
3,38,73,!splow,!hot_lobb,45,X,"""X""",393,True,1,2
3,39,18,!sphigh,!mus_Deckel,24,O,"""O""",518,True,1,2
3,40,51,!splow,!mus_stal,45,X,"""X""",553,True,1,2
3,41,29,!sphigh,!bro_hand,24,O,"""O""",558,True,1,2
3,42,20,!splow,!bro_bris,45,X,"""X""",481,True,1,2
3,43,108,!sphigh,!mou_Gipfel,24,O,"""O""",391,True,1,2
3,44,104,!splow,!mou_Tal,45,X,"""X""",471,True,1,2
3,45,24,!sphigh,!rai_clou,24,O,"""O""",413,True,1,1
3,46,93,!splow,!rai_pudd,24,O,"""X""",392,False,0,1
3,47,63,!sphigh,!Hund_coll,24,O,"""O""",380,True,1,1
3,48,92,!splow,!Hund_paw,24,O,"""X""",378,False,0,1
3,49,45,!sphigh,!coc_Baum,24,O,"""O""",453,True,1,1
3,50,50,!splow,!coc_Milch,45,X,"""X""",462,True,1,1
3,51,119,!sphigh,!clo_towe,24,O,"""O""",406,True,1,1
3,52,72,!splow,!clo_radi,45,X,"""X""",456,True,1,1
3,53,26,!sphigh,!chu_stee,24,O,"""O""",390,True,1,1
3,54,75,!splow,!chu_Kirchenbank,45,X,"""X""",383,True,1,1
3,55,13,!sphigh,!ste_ligh,24,O,"""O""",499,True,1,1
3,56,48,!splow,!ste_cor,45,X,"""X""",528,True,1,1
3,57,112,!sphigh,!flo_Lampee,24,O,"""O""",409,True,1,1
3,58,49,!splow,!flo_Läufer,45,X,"""X""",446,True,1,1
3,59,28,!sphigh,!tro_buck,24,O,"""O""",426,True,1,1
3,60,54,!splow,!tro_Saum,45,X,"""X""",456,True,1,1
4,1,17,!sphigh,!Kuh_Hut,45,X,"""X""",373,True,1,1
4,2,117,!splow,!Kuh_Stiefel,24,O,"""O""",634,True,1,1
4,3,80,!sphigh,!sho_Duschkopf,45,X,"""X""",449,True,1,1
4,4,36,!splow,!sho_dRegen,24,O,"""O""",691,True,1,1
4,5,93,!sphigh,!ele_Ohr,45,X,"""X""",408,True,1,1
4,6,51,!splow,!ele_Fuß,24,O,"""O""",458,True,1,1
4,7,25,!sphigh,!tab_clot,45,X,"""X""",635,True,1,1
4,8,20,!splow,!tab_Bein,24,O,"""O""",650,True,1,1
4,9,14,!sphigh,!hou_atti,45,X,"""X""",518,True,1,1
4,10,132,!splow,!hou_cell,45,X,"""O""",438,False,0,1
4,11,101,!sphigh,!tre_leav,24,O,"""X""",472,False,0,1
4,12,81,!splow,!tre_root,24,O,"""O""",559,True,1,1
4,13,90,!sphigh,!sho_lace,45,X,"""X""",462,True,1,1
4,14,72,!splow,!sho_sole,24,O,"""O""",521,True,1,1
4,15,92,!sphigh,!des_Lampe,45,X,"""X""",400,True,1,2
4,16,114,!splow,!des_draw,24,O,"""O""",573,True,1,2
4,17,31,!sphigh,!bot_Deckel,45,X,"""X""",523,True,1,2
4,18,120,!splow,!bot_coas,24,O,"""O""",541,True,1,2
4,19,53,!sphigh,!oce_surf,45,X,"""X""",448,True,1,2
4,20,67,!splow,!oce_floo,24,O,"""O""",651,True,1,2
4,21,37,!sphigh,!Auto_wind,45,X,"""X""",503,True,1,2
4,22,48,!splow,!Auto_whee,24,O,"""O""",607,True,1,2
4,23,41,!sphigh,!cor_stal,45,X,"""X""",546,True,1,2
4,24,109,!splow,!cor_see,24,O,"""O""",867,True,1,2
4,25,33,!sphigh,!bea_snou,45,X,"""X""",574,True,1,2
4,26,58,!splow,!bea_Klaue,24,O,"""O""",524,True,1,2
4,27,46,!sphigh,!bir_Auge,45,X,"""X""",574,True,1,2
4,28,131,!splow,!bir_talo,24,O,"""O""",521,True,1,2
4,29,23,!sphigh,!hor_Mähne,45,X,"""X""",577,True,1,2
4,30,68,!splow,!hor_hoov,24,O,"""O""",515,True,1,2
4,31,77,!sphigh,!bic_Sitz,24,O,"""O""",627,True,1,2
4,32,103,!splow,!bic_Reifen,45,X,"""X""",816,True,1,2
4,33,79,!sphigh,!bed_curt,24,O,"""O""",551,True,1,2
4,34,47,!splow,!bed_Autop,45,X,"""X""",589,True,1,2
4,35,63,!sphigh,!flo_peta,24,O,"""O""",517,True,1,2
4,36,43,!splow,!flo_Stiel,45,X,"""X""",547,True,1,2
4,37,61,!sphigh,!hot_Dach,24,O,"""O""",716,True,1,2
4,38,100,!splow,!hot_lobb,24,O,"""X""",455,False,0,2
4,39,91,!sphigh,!mus_Deckel,24,O,"""O""",665,True,1,2
4,40,124,!splow,!mus_stal,45,X,"""X""",589,True,1,2
4,41,112,!sphigh,!bro_hand,24,O,"""O""",599,True,1,2
4,42,73,!splow,!bro_bris,45,X,"""X""",584,True,1,2
4,43,64,!sphigh,!mou_Gipfel,24,O,"""O""",478,True,1,2
4,44,129,!splow,!mou_Tal,45,X,"""X""",610,True,1,2
4,45,104,!sphigh,!rai_clou,45,X,"""O""",482,False,0,1
4,46,97,!splow,!rai_pudd,45,X,"""X""",464,True,1,1
4,47,118,!sphigh,!Hund_coll,24,O,"""O""",628,True,1,1
4,48,74,!splow,!Hund_paw,45,X,"""X""",509,True,1,1
4,49,96,!sphigh,!coc_Baum,24,O,"""O""",550,True,1,1
4,50,85,!splow,!coc_Milch,45,X,"""X""",577,True,1,1
4,51,18,!sphigh,!clo_towe,45,X,"""O""",393,False,0,1
4,52,60,!splow,!clo_radi,45,X,"""X""",420,True,1,1
4,53,89,!sphigh,!chu_stee,24,O,"""O""",441,True,1,1
4,54,13,!splow,!chu_Kirchenbank,24,O,"""X""",342,False,0,1
4,55,99,!sphigh,!ste_ligh,24,O,"""O""",482,True,1,1
4,56,107,!splow,!ste_cor,45,X,"""X""",449,True,1,1
4,57,62,!sphigh,!flo_Lampee,24,O,"""O""",491,True,1,1
4,58,34,!splow,!flo_Läufer,45,X,"""X""",568,True,1,1
4,59,127,!sphigh,!tro_buck,24,O,"""O""",588,True,1,1
4,60,76,!splow,!tro_Saum,45,X,"""X""",454,True,1,1
5,1,73,!sphigh,!Kuh_Hut,45,X,"""X""",491,True,1,1
5,2,45,!splow,!Kuh_Stiefel,24,O,"""O""",581,True,1,1
5,3,96,!sphigh,!sho_Duschkopf,45,X,"""X""",496,True,1,1
5,4,130,!splow,!sho_dRegen,24,O,"""O""",566,True,1,1
5,5,107,!sphigh,!ele_Ohr,45,X,"""X""",527,True,1,1
5,6,132,!splow,!ele_Fuß,24,O,"""O""",475,True,1,1
5,7,16,!sphigh,!tab_clot,45,X,"""X""",545,True,1,1
5,8,119,!splow,!tab_Bein,24,O,"""O""",594,True,1,1
5,9,44,!sphigh,!hou_atti,45,X,"""X""",538,True,1,1
5,10,74,!splow,!hou_cell,24,O,"""O""",623,True,1,1
5,11,22,!sphigh,!tre_leav,45,X,"""X""",701,True,1,1
5,12,99,!splow,!tre_root,24,O,"""O""",572,True,1,1
5,13,78,!sphigh,!sho_lace,45,X,"""X""",504,True,1,1
5,14,114,!splow,!sho_sole,24,O,"""O""",551,True,1,1
5,15,92,!sphigh,!des_Lampe,45,X,"""X""",606,True,1,2
5,16,64,!splow,!des_draw,24,O,"""O""",379,True,1,2
5,17,124,!sphigh,!bot_Deckel,45,X,"""X""",500,True,1,2
5,18,41,!splow,!bot_coas,24,O,"""O""",481,True,1,2
5,19,121,!sphigh,!oce_surf,45,X,"""X""",579,True,1,2
5,20,111,!splow,!oce_floo,24,O,"""O""",494,True,1,2
5,21,70,!sphigh,!Auto_wind,45,X,"""X""",349,True,1,2
5,22,98,!splow,!Auto_whee,24,O,"""O""",476,True,1,2
5,23,49,!sphigh,!cor_stal,45,X,"""X""",538,True,1,2
5,24,83,!splow,!cor_see,24,O,"""O""",486,True,1,2
5,25,17,!sphigh,!bea_snou,45,X,"""X""",646,True,1,2
5,26,53,!splow,!bea_Klaue,24,O,"""O""",509,True,1,2
5,27,57,!sphigh,!bir_Auge,45,X,"""X""",551,True,1,2
5,28,39,!splow,!bir_talo,24,O,"""O""",512,True,1,2
5,29,56,!sphigh,!hor_Mähne,45,X,"""X""",471,True,1,2
5,30,61,!splow,!hor_hoov,24,O,"""O""",480,True,1,2
5,31,51,!sphigh,!bic_Sitz,24,O,"""O""",583,True,1,2
5,32,62,!splow,!bic_Reifen,45,X,"""X""",630,True,1,2
5,33,125,!sphigh,!bed_curt,24,O,"""O""",496,True,1,2
5,34,40,!splow,!bed_Autop,45,X,"""X""",456,True,1,2
5,35,113,!sphigh,!flo_peta,24,O,"""O""",501,True,1,2
5,36,34,!splow,!flo_Stiel,45,X,"""X""",525,True,1,2
5,37,71,!sphigh,!hot_Dach,24,O,"""O""",498,True,1,2
5,38,27,!splow,!hot_lobb,45,X,"""X""",542,True,1,2
5,39,23,!sphigh,!mus_Deckel,24,O,"""O""",635,True,1,2
5,40,30,!splow,!mus_stal,45,X,"""X""",511,True,1,2
5,41,14,!sphigh,!bro_hand,24,O,"""O""",656,True,1,2
5,42,109,!splow,!bro_bris,45,X,"""X""",573,True,1,2
5,43,131,!sphigh,!mou_Gipfel,24,O,"""O""",510,True,1,2
5,44,93,!splow,!mou_Tal,45,X,"""X""",424,True,1,2
5,45,32,!sphigh,!rai_clou,24,O,"""O""",787,True,1,1
5,46,35,!splow,!rai_pudd,45,X,"""X""",422,True,1,1
5,47,105,!sphigh,!Hund_coll,24,O,"""O""",463,True,1,1
5,48,95,!splow,!Hund_paw,45,X,"""X""",575,True,1,1
5,49,80,!sphigh,!coc_Baum,24,O,"""O""",474,True,1,1
5,50,69,!splow,!coc_Milch,45,X,"""X""",403,True,1,1
5,51,116,!sphigh,!clo_towe,24,O,"""O""",464,True,1,1
5,52,112,!splow,!clo_radi,45,X,"""X""",606,True,1,1
5,53,94,!sphigh,!chu_stee,24,O,"""O""",402,True,1,1
5,54,108,!splow,!chu_Kirchenbank,45,X,"""X""",370,True,1,1
5,55,29,!sphigh,!ste_ligh,24,O,"""O""",601,True,1,1
5,56,18,!splow,!ste_cor,45,X,"""X""",562,True,1,1
5,57,90,!sphigh,!flo_Lampee,24,O,"""O""",487,True,1,1
5,58,102,!splow,!flo_Läufer,45,X,"""X""",473,True,1,1
5,59,31,!sphigh,!tro_buck,24,O,"""O""",530,True,1,1
5,60,129,!splow,!tro_Saum,45,X,"""X""",490,True,1,1
6,1,127,!sphigh,!Kuh_Hut,45,X,"""X""",383,True,1,1
6,2,81,!splow,!Kuh_Stiefel,24,O,"""O""",423,True,1,1
6,3,52,!sphigh,!sho_Duschkopf,45,X,"""X""",338,True,1,1
6,4,84,!splow,!sho_dRegen,24,O,"""O""",420,True,1,1
6,5,123,!sphigh,!ele_Ohr,45,X,"""X""",429,True,1,1
6,6,97,!splow,!ele_Fuß,24,O,"""O""",431,True,1,1
6,7,94,!sphigh,!tab_clot,24,O,"""X""",386,False,0,1
6,8,83,!splow,!tab_Bein,45,X,"""O""",297,False,0,1
6,9,21,!sphigh,!hou_atti,45,X,"""X""",421,True,1,1
6,10,128,!splow,!hou_cell,24,O,"""O""",499,True,1,1
6,11,22,!sphigh,!tre_leav,45,X,"""X""",404,True,1,1
6,12,17,!splow,!tre_root,45,X,"""O""",318,False,0,1
6,13,76,!sphigh,!sho_lace,45,X,"""X""",559,True,1,1
6,14,122,!splow,!sho_sole,24,O,"""O""",392,True,1,1
6,15,65,!sphigh,!des_Lampe,45,X,"""X""",379,True,1,2
6,16,103,!splow,!des_draw,24,O,"""O""",479,True,1,2
6,17,85,!sphigh,!bot_Deckel,45,X,"""X""",429,True,1,2
6,18,92,!splow,!bot_coas,24,O,"""O""",343,True,1,2
6,19,82,!sphigh,!oce_surf,45,X,"""X""",581,True,1,2
6,20,43,!splow,!oce_floo,24,O,"""O""",319,True,1,2
6,21,120,!sphigh,!Auto_wind,45,X,"""X""",393,True,1,2
6,22,18,!splow,!Auto_whee,24,O,"""O""",411,True,1,2
6,23,121,!sphigh,!cor_stal,45,X,"""X""",423,True,1,2
6,24,40,!splow,!cor_see,24,O,"""O""",342,True,1,2
6,25,62,!sphigh,!bea_snou,45,X,"""X""",421,True,1,2
6,26,105,!splow,!bea_Klaue,24,O,"""O""",396,True,1,2
6,27,108,!sphigh,!bir_Auge,45,X,"""X""",440,True,1,2
6,28,66,!splow,!bir_talo,24,O,"""O""",381,True,1,2
6,29,30,!sphigh,!hor_Mähne,45,X,"""X""",335,True,1,2
6,30,78,!splow,!hor_hoov,24,O,"""O""",369,True,1,2
6,31,130,!sphigh,!bic_Sitz,24,O,"""O""",437,True,1,2
6,32,114,!splow,!bic_Reifen,45,X,"""X""",352,True,1,2
6,33,73,!sphigh,!bed_curt,24,O,"""O""",493,True,1,2
6,34,51,!splow,!bed_Autop,45,X,"""X""",369,True,1,2
6,35,50,!sphigh,!flo_peta,45,X,"""O""",341,False,0,2
6,36,46,!splow,!flo_Stiel,45,X,"""X""",368,True,1,2
6,37,91,!sphigh,!hot_Dach,24,O,"""O""",430,True,1,2
6,38,117,!splow,!hot_lobb,45,X,"""X""",364,True,1,2
6,39,19,!sphigh,!mus_Deckel,24,O,"""O""",472,True,1,2
6,40,25,!splow,!mus_stal,45,X,"""X""",413,True,1,2
6,41,13,!sphigh,!bro_hand,24,O,"""O""",446,True,1,2
6,42,104,!splow,!bro_bris,45,X,"""X""",341,True,1,2
6,43,75,!sphigh,!mou_Gipfel,24,O,"""O""",403,True,1,2
6,44,63,!splow,!mou_Tal,45,X,"""X""",435,True,1,2
6,45,53,!sphigh,!rai_clou,24,O,"""O""",288,True,1,1
6,46,14,!splow,!rai_pudd,45,X,"""X""",366,True,1,1
6,47,24,!sphigh,!Hund_coll,24,O,"""O""",363,True,1,1
6,48,38,!splow,!Hund_paw,45,X,"""X""",399,True,1,1
6,49,59,!sphigh,!coc_Baum,24,O,"""O""",372,True,1,1
6,50,69,!splow,!coc_Milch,45,X,"""X""",347,True,1,1
6,51,47,!sphigh,!clo_towe,24,O,"""O""",349,True,1,1
6,52,131,!splow,!clo_radi,45,X,"""X""",369,True,1,1
6,53,80,!sphigh,!chu_stee,24,O,"""O""",282,True,1,1
6,54,28,!splow,!chu_Kirchenbank,45,X,"""X""",356,True,1,1
6,55,86,!sphigh,!ste_ligh,24,O,"""O""",489,True,1,1
6,56,96,!splow,!ste_cor,45,X,"""X""",379,True,1,1
6,57,88,!sphigh,!flo_Lampee,24,O,"""O""",369,True,1,1
6,58,55,!splow,!flo_Läufer,45,X,"""X""",330,True,1,1
6,59,113,!sphigh,!tro_buck,24,O,"""O""",360,True,1,1
6,60,60,!splow,!tro_Saum,45,X,"""X""",352,True,1,1
7,1,76,!sphigh,!Kuh_Hut,45,X,"""X""",710,True,1,1
7,2,42,!splow,!Kuh_Stiefel,24,O,"""O""",454,True,1,1
7,3,70,!sphigh,!sho_Duschkopf,45,X,"""X""",508,True,1,1
7,4,123,!splow,!sho_dRegen,24,O,"""O""",427,True,1,1
7,5,116,!sphigh,!ele_Ohr,45,X,"""X""",540,True,1,1
7,6,117,!splow,!ele_Fuß,24,O,"""O""",496,True,1,1
7,7,25,!sphigh,!tab_clot,45,X,"""X""",417,True,1,1
7,8,99,!splow,!tab_Bein,24,O,"""O""",783,True,1,1
7,9,128,!sphigh,!hou_atti,45,X,"""X""",364,True,1,1
7,10,108,!splow,!hou_cell,24,O,"""O""",565,True,1,1
7,11,85,!sphigh,!tre_leav,45,X,"""X""",444,True,1,1
7,12,57,!splow,!tre_root,24,O,"""O""",597,True,1,1
7,13,94,!sphigh,!sho_lace,45,X,"""X""",454,True,1,1
7,14,86,!splow,!sho_sole,24,O,"""O""",457,True,1,1
7,15,34,!sphigh,!des_Lampe,45,X,"""X""",366,True,1,2
7,16,75,!splow,!des_draw,24,O,"""O""",386,True,1,2
7,17,113,!sphigh,!bot_Deckel,45,X,"""X""",625,True,1,2
7,18,68,!splow,!bot_coas,24,O,"""O""",539,True,1,2
7,19,64,!sphigh,!oce_surf,45,X,"""X""",779,True,1,2
7,20,88,!splow,!oce_floo,24,O,"""O""",688,True,1,2
7,21,28,!sphigh,!Auto_wind,45,X,"""X""",615,True,1,2
7,22,51,!splow,!Auto_whee,24,O,"""O""",427,True,1,2
7,23,83,!sphigh,!cor_stal,45,X,"""X""",539,True,1,2
7,24,132,!splow,!cor_see,24,O,"""O""",444,True,1,2
7,25,118,!sphigh,!bea_snou,45,X,"""X""",677,True,1,2
7,26,37,!splow,!bea_Klaue,24,O,"""O""",411,True,1,2
7,27,106,!sphigh,!bir_Auge,45,X,"""X""",560,True,1,2
7,28,61,!splow,!bir_talo,24,O,"""O""",526,True,1,2
7,29,36,!sphigh,!hor_Mähne,45,X,"""X""",444,True,1,2
7,30,69,!splow,!hor_hoov,24,O,"""O""",481,True,1,2
7,31,41,!sphigh,!bic_Sitz,24,O,"""O""",652,True,1,2
7,32,84,!splow,!bic_Reifen,45,X,"""X""",577,True,1,2
7,33,124,!sphigh,!bed_curt,24,O,"""O""",352,True,1,2
7,34,17,!splow,!bed_Autop,45,X,"""X""",487,True,1,2
7,35,58,!sphigh,!flo_peta,24,O,"""O""",572,True,1,2
7,36,130,!splow,!flo_Stiel,45,X,"""X""",388,True,1,2
7,37,107,!sphigh,!hot_Dach,24,O,"""O""",561,True,1,2
7,38,53,!splow,!hot_lobb,45,X,"""X""",515,True,1,2
7,39,105,!sphigh,!mus_Deckel,24,O,"""O""",733,True,1,2
7,40,103,!splow,!mus_stal,45,X,"""X""",510,True,1,2
7,41,119,!sphigh,!bro_hand,24,O,"""O""",478,True,1,2
7,42,30,!splow,!bro_bris,45,X,"""X""",605,True,1,2
7,43,93,!sphigh,!mou_Gipfel,24,O,"""O""",526,True,1,2
7,44,14,!splow,!mou_Tal,45,X,"""X""",460,True,1,2
7,45,112,!sphigh,!rai_clou,24,O,"""O""",468,True,1,1
7,46,45,!splow,!rai_pudd,45,X,"""X""",490,True,1,1
7,47,101,!sphigh,!Hund_coll,24,O,"""O""",380,True,1,1
7,48,55,!splow,!Hund_paw,45,X,"""X""",634,True,1,1
7,49,98,!sphigh,!coc_Baum,24,O,"""O""",716,True,1,1
7,50,31,!splow,!coc_Milch,45,X,"""X""",718,True,1,1
7,51,40,!sphigh,!clo_towe,24,O,"""O""",529,True,1,1
7,52,126,!splow,!clo_radi,45,X,"""X""",537,True,1,1
7,53,114,!sphigh,!chu_stee,24,O,"""O""",522,True,1,1
7,54,15,!splow,!chu_Kirchenbank,45,X,"""X""",922,True,1,1
7,55,60,!sphigh,!ste_ligh,24,O,"""O""",507,True,1,1
7,56,21,!splow,!ste_cor,24,O,"""X""",356,False,0,1
7,57,52,!sphigh,!flo_Lampee,24,O,"""O""",421,True,1,1
7,58,48,!splow,!flo_Läufer,45,X,"""X""",612,True,1,1
7,59,71,!sphigh,!tro_buck,24,O,"""O""",506,True,1,1
7,60,91,!splow,!tro_Saum,45,X,"""X""",512,True,1,1
8,1,94,!sphigh,!Kuh_Hut,45,X,"""X""",403,True,1,1
8,2,47,!splow,!Kuh_Stiefel,24,O,"""O""",358,True,1,1
8,3,108,!sphigh,!sho_Duschkopf,24,O,"""X""",298,False,0,1
8,4,93,!splow,!sho_dRegen,24,O,"""O""",338,True,1,1
8,5,98,!sphigh,!ele_Ohr,45,X,"""X""",386,True,1,1
8,6,46,!splow,!ele_Fuß,24,O,"""O""",374,True,1,1
8,7,79,!sphigh,!tab_clot,45,X,"""X""",448,True,1,1
8,8,25,!splow,!tab_Bein,24,O,"""O""",489,True,1,1
8,9,45,!sphigh,!hou_atti,45,X,"""X""",460,True,1,1
8,10,18,!splow,!hou_cell,24,O,"""O""",389,True,1,1
8,11,58,!sphigh,!tre_leav,45,X,"""X""",475,True,1,1
8,12,104,!splow,!tre_root,24,O,"""O""",438,True,1,1
8,13,28,!sphigh,!sho_lace,45,X,"""X""",549,True,1,1
8,14,62,!splow,!sho_sole,24,O,"""O""",503,True,1,1
8,15,17,!sphigh,!des_Lampe,45,X,"""X""",558,True,1,2
8,16,37,!splow,!des_draw,24,O,"""O""",329,True,1,2
8,17,23,!sphigh,!bot_Deckel,45,X,"""X""",497,True,1,2
8,18,112,!splow,!bot_coas,24,O,"""O""",471,True,1,2
8,19,116,!sphigh,!oce_surf,45,X,"""X""",507,True,1,2
8,20,27,!splow,!oce_floo,24,O,"""O""",451,True,1,2
8,21,54,!sphigh,!Auto_wind,45,X,"""X""",322,True,1,2
8,22,83,!splow,!Auto_whee,24,O,"""O""",326,True,1,2
8,23,65,!sphigh,!cor_stal,45,X,"""X""",465,True,1,2
8,24,117,!splow,!cor_see,24,O,"""O""",397,True,1,2
8,25,86,!sphigh,!bea_snou,45,X,"""X""",427,True,1,2
8,26,70,!splow,!bea_Klaue,24,O,"""O""",443,True,1,2
8,27,73,!sphigh,!bir_Auge,45,X,"""X""",383,True,1,2
8,28,100,!splow,!bir_talo,24,O,"""O""",458,True,1,2
8,29,120,!sphigh,!hor_Mähne,45,X,"""X""",397,True,1,2
8,30,101,!splow,!hor_hoov,24,O,"""O""",330,True,1,2
8,31,130,!sphigh,!bic_Sitz,24,O,"""O""",482,True,1,2
8,32,67,!splow,!bic_Reifen,45,X,"""X""",400,True,1,2
8,33,20,!sphigh,!bed_curt,45,X,"""O""",426,False,0,2
8,34,71,!splow,!bed_Autop,45,X,"""X""",456,True,1,2
8,35,14,!sphigh,!flo_peta,24,O,"""O""",478,True,1,2
8,36,132,!splow,!flo_Stiel,45,X,"""X""",444,True,1,2
8,37,57,!sphigh,!hot_Dach,24,O,"""O""",555,True,1,2
8,38,109,!splow,!hot_lobb,45,X,"""X""",517,True,1,2
8,39,34,!sphigh,!mus_Deckel,24,O,"""O""",448,True,1,2
8,40,22,!splow,!mus_stal,45,X,"""X""",461,True,1,2
8,41,125,!sphigh,!bro_hand,24,O,"""O""",444,True,1,2
8,42,74,!splow,!bro_bris,45,X,"""X""",479,True,1,2
8,43,49,!sphigh,!mou_Gipfel,24,O,"""O""",445,True,1,2
8,44,105,!splow,!mou_Tal,45,X,"""X""",470,True,1,2
8,45,43,!sphigh,!rai_clou,24,O,"""O""",351,True,1,1
8,46,16,!splow,!rai_pudd,45,X,"""X""",402,True,1,1
8,47,107,!sphigh,!Hund_coll,24,O,"""O""",432,True,1,1
8,48,111,!splow,!Hund_paw,45,X,"""X""",426,True,1,1
8,49,56,!sphigh,!coc_Baum,24,O,"""O""",386,True,1,1
8,50,38,!splow,!coc_Milch,45,X,"""X""",453,True,1,1
8,51,64,!sphigh,!clo_towe,24,O,"""O""",370,True,1,1
8,52,72,!splow,!clo_radi,45,X,"""X""",449,True,1,1
8,53,90,!sphigh,!chu_stee,24,O,"""O""",350,True,1,1
8,54,127,!splow,!chu_Kirchenbank,45,X,"""X""",409,True,1,1
8,55,115,!sphigh,!ste_ligh,24,O,"""O""",459,True,1,1
8,56,129,!splow,!ste_cor,45,X,"""X""",395,True,1,1
8,57,99,!sphigh,!flo_Lampee,24,O,"""O""",419,True,1,1
8,58,95,!splow,!flo_Läufer,45,X,"""X""",378,True,1,1
8,59,131,!sphigh,!tro_buck,24,O,"""O""",502,True,1,1
8,60,88,!splow,!tro_Saum,45,X,"""X""",442,True,1,1
9,1,45,!sphigh,!Kuh_Hut,45,X,"""X""",492,True,1,1
9,2,107,!splow,!Kuh_Stiefel,24,O,"""O""",530,True,1,1
9,3,106,!sphigh,!sho_Duschkopf,45,X,"""X""",815,True,1,1
9,4,54,!splow,!sho_dRegen,24,O,"""O""",569,True,1,1
9,5,117,!sphigh,!ele_Ohr,45,X,"""X""",787,True,1,1
9,6,16,!splow,!ele_Fuß,24,O,"""O""",488,True,1,1
9,7,104,!sphigh,!tab_clot,45,X,"""X""",705,True,1,1
9,8,110,!splow,!tab_Bein,24,O,"""O""",589,True,1,1
9,9,40,!sphigh,!hou_atti,45,X,"""X""",479,True,1,1
9,10,78,!splow,!hou_cell,45,X,"""O""",388,False,0,1
9,11,90,!sphigh,!tre_leav,45,X,"""X""",604,True,1,1
9,12,25,!splow,!tre_root,45,X,"""O""",414,False,0,1
9,13,39,!sphigh,!sho_lace,45,X,"""X""",459,True,1,1
9,14,88,!splow,!sho_sole,24,O,"""O""",749,True,1,1
9,15,66,!sphigh,!des_Lampe,45,X,"""X""",507,True,1,2
9,16,100,!splow,!des_draw,24,O,"""O""",518,True,1,2
9,17,79,!sphigh,!bot_Deckel,45,X,"""X""",498,True,1,2
9,18,29,!splow,!bot_coas,24,O,"""O""",606,True,1,2
9,19,47,!sphigh,!oce_surf,45,X,"""X""",706,True,1,2
9,20,85,!splow,!oce_floo,24,O,"""O""",786,True,1,2
9,21,50,!sphigh,!Auto_wind,45,X,"""X""",458,True,1,2
9,22,18,!splow,!Auto_whee,24,O,"""O""",416,True,1,2
9,23,108,!sphigh,!cor_stal,45,X,"""X""",670,True,1,2
9,24,24,!splow,!cor_see,24,O,"""O""",517,True,1,2
9,25,74,!sphigh,!bea_snou,45,X,"""X""",689,True,1,2
9,26,62,!splow,!bea_Klaue,24,O,"""O""",502,True,1,2
9,27,52,!sphigh,!bir_Auge,45,X,"""X""",533,True,1,2
9,28,77,!splow,!bir_talo,24,O,"""O""",648,True,1,2
9,29,63,!sphigh,!hor_Mähne,45,X,"""X""",412,True,1,2
9,30,57,!splow,!hor_hoov,24,O,"""O""",614,True,1,2
9,31,119,!sphigh,!bic_Sitz,45,X,"""O""",493,False,0,2
9,32,15,!splow,!bic_Reifen,45,X,"""X""",466,True,1,2
9,33,93,!sphigh,!bed_curt,24,O,"""O""",663,True,1,2
9,34,28,!splow,!bed_Autop,45,X,"""X""",741,True,1,2
9,35,96,!sphigh,!flo_peta,24,O,"""O""",628,True,1,2
9,36,73,!splow,!flo_Stiel,45,X,"""X""",701,True,1,2
9,37,56,!sphigh,!hot_Dach,24,O,"""O""",613,True,1,2
9,38,98,!splow,!hot_lobb,45,X,"""X""",564,True,1,2
9,39,58,!sphigh,!mus_Deckel,24,O,"""O""",597,True,1,2
9,40,14,!splow,!mus_stal,45,X,"""X""",512,True,1,2
9,41,118,!sphigh,!bro_hand,24,O,"""O""",918,True,1,2
9,42,27,!splow,!bro_bris,45,X,"""X""",758,True,1,2
9,43,99,!sphigh,!mou_Gipfel,24,O,"""O""",650,True,1,2
9,44,46,!splow,!mou_Tal,45,X,"""X""",544,True,1,2
9,45,128,!sphigh,!rai_clou,24,O,"""O""",541,True,1,1
9,46,35,!splow,!rai_pudd,45,X,"""X""",476,True,1,1
9,47,70,!sphigh,!Hund_coll,24,O,"""O""",645,True,1,1
9,48,65,!splow,!Hund_paw,45,X,"""X""",450,True,1,1
9,49,102,!sphigh,!coc_Baum,24,O,"""O""",643,True,1,1
9,50,129,!splow,!coc_Milch,45,X,"""X""",625,True,1,1
9,51,120,!sphigh,!clo_towe,24,O,"""O""",682,True,1,1
9,52,125,!splow,!clo_radi,45,X,"""X""",736,True,1,1
9,53,123,!sphigh,!chu_stee,24,O,"""O""",611,True,1,1
9,54,94,!splow,!chu_Kirchenbank,45,X,"""X""",531,True,1,1
9,55,48,!sphigh,!ste_ligh,24,O,"""O""",641,True,1,1
9,56,132,!splow,!ste_cor,45,X,"""X""",671,True,1,1
9,57,103,!sphigh,!flo_Lampee,24,O,"""O""",544,True,1,1
9,58,69,!splow,!flo_Läufer,45,X,"""X""",527,True,1,1
9,59,23,!sphigh,!tro_buck,24,O,"""O""",415,True,1,1
9,60,87,!splow,!tro_Saum,45,X,"""X""",505,True,1,1
10,1,38,!sphigh,!Kuh_Hut,45,X,"""X""",489,True,1,1
10,2,112,!splow,!Kuh_Stiefel,24,O,"""O""",426,True,1,1
10,3,92,!sphigh,!sho_Duschkopf,45,X,"""X""",459,True,1,1
10,4,99,!splow,!sho_dRegen,24,O,"""O""",354,True,1,1
10,5,77,!sphigh,!ele_Ohr,45,X,"""X""",674,True,1,1
10,6,84,!splow,!ele_Fuß,24,O,"""O""",481,True,1,1
10,7,122,!sphigh,!tab_clot,45,X,"""X""",489,True,1,1
10,8,131,!splow,!tab_Bein,24,O,"""O""",367,True,1,1
10,9,130,!sphigh,!hou_atti,24,O,"""X""",264,False,0,1
10,10,106,!splow,!hou_cell,24,O,"""O""",389,True,1,1
10,11,86,!sphigh,!tre_leav,45,X,"""X""",376,True,1,1
10,12,35,!splow,!tre_root,24,O,"""O""",427,True,1,1
10,13,127,!sphigh,!sho_lace,45,X,"""X""",479,True,1,1
10,14,123,!splow,!sho_sole,24,O,"""O""",342,True,1,1
10,15,22,!sphigh,!des_Lampe,45,X,"""X""",319,True,1,2
10,16,108,!splow,!des_draw,24,O,"""O""",372,True,1,2
10,17,17,!sphigh,!bot_Deckel,45,X,"""X""",322,True,1,2
10,18,34,!splow,!bot_coas,24,O,"""O""",347,True,1,2
10,19,78,!sphigh,!oce_surf,45,X,"""X""",536,True,1,2
10,20,55,!splow,!oce_floo,24,O,"""O""",326,True,1,2
10,21,98,!sphigh,!Auto_wind,45,X,"""X""",432,True,1,2
10,22,75,!splow,!Auto_whee,24,O,"""O""",331,True,1,2
10,23,49,!sphigh,!cor_stal,45,X,"""X""",466,True,1,2
10,24,67,!splow,!cor_see,24,O,"""O""",403,True,1,2
10,25,93,!sphigh,!bea_snou,45,X,"""X""",394,True,1,2
10,26,85,!splow,!bea_Klaue,24,O,"""O""",361,True,1,2
10,27,91,!sphigh,!bir_Auge,45,X,"""X""",369,True,1,2
10,28,40,!splow,!bir_talo,24,O,"""O""",387,True,1,2
10,29,63,!sphigh,!hor_Mähne,45,X,"""X""",344,True,1,2
10,30,125,!splow,!hor_hoov,24,O,"""O""",283,True,1,2
10,31,53,!sphigh,!bic_Sitz,24,O,"""O""",391,True,1,2
10,32,27,!splow,!bic_Reifen,45,X,"""X""",347,True,1,2
10,33,32,!sphigh,!bed_curt,24,O,"""O""",339,True,1,2
10,34,28,!splow,!bed_Autop,45,X,"""X""",542,True,1,2
10,35,89,!sphigh,!flo_peta,24,O,"""O""",385,True,1,2
10,36,14,!splow,!flo_Stiel,45,X,"""X""",365,True,1,2
10,37,61,!sphigh,!hot_Dach,24,O,"""O""",375,True,1,2
10,38,39,!splow,!hot_lobb,45,X,"""X""",427,True,1,2
10,39,80,!sphigh,!mus_Deckel,24,O,"""O""",543,True,1,2
10,40,124,!splow,!mus_stal,45,X,"""X""",409,True,1,2
10,41,100,!sphigh,!bro_hand,24,O,"""O""",377,True,1,2
10,42,111,!splow,!bro_bris,45,X,"""X""",416,True,1,2
10,43,95,!sphigh,!mou_Gipfel,24,O,"""O""",410,True,1,2
10,44,110,!splow,!mou_Tal,45,X,"""X""",485,True,1,2
10,45,42,!sphigh,!rai_clou,24,O,"""O""",424,True,1,1
10,46,79,!splow,!rai_pudd,45,X,"""X""",372,True,1,1
10,47,26,!sphigh,!Hund_coll,24,O,"""O""",481,True,1,1
10,48,90,!splow,!Hund_paw,45,X,"""X""",385,True,1,1
10,49,13,!sphigh,!coc_Baum,24,O,"""O""",363,True,1,1
10,50,58,!splow,!coc_Milch,45,X,"""X""",505,True,1,1
10,51,103,!sphigh,!clo_towe,24,O,"""O""",349,True,1,1
10,52,45,!splow,!clo_radi,45,X,"""X""",371,True,1,1
10,53,117,!sphigh,!chu_stee,24,O,"""O""",373,True,1,1
10,54,62,!splow,!chu_Kirchenbank,45,X,"""X""",397,True,1,1
10,55,74,!sphigh,!ste_ligh,45,X,"""O""",349,False,0,1
10,56,21,!splow,!ste_cor,45,X,"""X""",313,True,1,1
10,57,48,!sphigh,!flo_Lampee,24,O,"""O""",351,True,1,1
10,58,69,!splow,!flo_Läufer,45,X,"""X""",367,True,1,1
10,59,88,!sphigh,!tro_buck,24,O,"""O""",391,True,1,1
10,60,96,!splow,!tro_Saum,45,X,"""X""",492,True,1,1
11,1,113,!sphigh,!Kuh_Hut,45,X,"""X""",405,True,1,1
11,2,59,!splow,!Kuh_Stiefel,24,O,"""O""",391,True,1,1
11,3,126,!sphigh,!sho_Duschkopf,45,X,"""X""",394,True,1,1
11,4,66,!splow,!sho_dRegen,24,O,"""O""",506,True,1,1
11,5,99,!sphigh,!ele_Ohr,45,X,"""X""",402,True,1,1
11,6,98,!splow,!ele_Fuß,24,O,"""O""",490,True,1,1
11,7,107,!sphigh,!tab_clot,45,X,"""X""",324,True,1,1
11,8,92,!splow,!tab_Bein,45,X,"""O""",319,False,0,1
11,9,100,!sphigh,!hou_atti,45,X,"""X""",444,True,1,1
11,10,30,!splow,!hou_cell,24,O,"""O""",460,True,1,1
11,11,77,!sphigh,!tre_leav,24,O,"""X""",500,False,0,1
11,12,83,!splow,!tre_root,45,X,"""O""",366,False,0,1
11,13,60,!sphigh,!sho_lace,45,X,"""X""",479,True,1,1
11,14,128,!splow,!sho_sole,24,O,"""O""",422,True,1,1
11,15,51,!sphigh,!des_Lampe,45,X,"""X""",312,True,1,2
11,16,64,!splow,!des_draw,24,O,"""O""",436,True,1,2
11,17,28,!sphigh,!bot_Deckel,45,X,"""X""",546,True,1,2
11,18,89,!splow,!bot_coas,24,O,"""O""",423,True,1,2
11,19,76,!sphigh,!oce_surf,45,X,"""X""",424,True,1,2
11,20,32,!splow,!oce_floo,24,O,"""O""",424,True,1,2
11,21,94,!sphigh,!Auto_wind,45,X,"""X""",432,True,1,2
11,22,40,!splow,!Auto_whee,24,O,"""O""",379,True,1,2
11,23,47,!sphigh,!cor_stal,45,X,"""X""",398,True,1,2
11,24,41,!splow,!cor_see,24,O,"""O""",476,True,1,2
11,25,39,!sphigh,!bea_snou,45,X,"""X""",355,True,1,2
11,26,95,!splow,!bea_Klaue,24,O,"""O""",480,True,1,2
11,27,23,!sphigh,!bir_Auge,45,X,"""X""",461,True,1,2
11,28,16,!splow,!bir_talo,24,O,"""O""",497,True,1,2
11,29,49,!sphigh,!hor_Mähne,45,X,"""X""",345,True,1,2
11,30,97,!splow,!hor_hoov,24,O,"""O""",442,True,1,2
11,31,53,!sphigh,!bic_Sitz,24,O,"""O""",527,True,1,2
11,32,93,!splow,!bic_Reifen,45,X,"""X""",638,True,1,2
11,33,73,!sphigh,!bed_curt,24,O,"""O""",361,True,1,2
11,34,38,!splow,!bed_Autop,45,X,"""X""",411,True,1,2
11,35,71,!sphigh,!flo_peta,24,O,"""O""",531,True,1,2
11,36,29,!splow,!flo_Stiel,45,X,"""X""",547,True,1,2
11,37,19,!sphigh,!hot_Dach,24,O,"""O""",441,True,1,2
11,38,13,!splow,!hot_lobb,45,X,"""X""",557,True,1,2
11,39,105,!sphigh,!mus_Deckel,24,O,"""O""",426,True,1,2
11,40,90,!splow,!mus_stal,45,X,"""X""",410,True,1,2
11,41,78,!sphigh,!bro_hand,24,O,"""O""",566,True,1,2
11,42,61,!splow,!bro_bris,45,X,"""X""",356,True,1,2
11,43,69,!sphigh,!mou_Gipfel,24,O,"""O""",463,True,1,2
11,44,46,!splow,!mou_Tal,45,X,"""X""",523,True,1,2
11,45,70,!sphigh,!rai_clou,24,O,"""O""",466,True,1,1
11,46,118,!splow,!rai_pudd,45,X,"""X""",380,True,1,1
11,47,117,!sphigh,!Hund_coll,24,O,"""O""",351,True,1,1
11,48,31,!splow,!Hund_paw,45,X,"""X""",391,True,1,1
11,49,55,!sphigh,!coc_Baum,24,O,"""O""",463,True,1,1
11,50,84,!splow,!coc_Milch,45,X,"""X""",435,True,1,1
11,51,22,!sphigh,!clo_towe,24,O,"""O""",470,True,1,1
11,52,121,!splow,!clo_radi,45,X,"""X""",483,True,1,1
11,53,127,!sphigh,!chu_stee,24,O,"""O""",365,True,1,1
11,54,68,!splow,!chu_Kirchenbank,45,X,"""X""",349,True,1,1
11,55,57,!sphigh,!ste_ligh,24,O,"""O""",372,True,1,1
11,56,81,!splow,!ste_cor,45,X,"""X""",429,True,1,1
11,57,79,!sphigh,!flo_Lampee,24,O,"""O""",437,True,1,1
11,58,110,!splow,!flo_Läufer,45,X,"""X""",365,True,1,1
11,59,91,!sphigh,!tro_buck,24,O,"""O""",305,True,1,1
11,60,112,!splow,!tro_Saum,45,X,"""X""",374,True,1,1
12,1,83,!sphigh,!Kuh_Hut,45,X,"""X""",447,True,1,1
12,2,72,!splow,!Kuh_Stiefel,24,O,"""O""",486,True,1,1
12,3,119,!sphigh,!sho_Duschkopf,45,X,"""X""",442,True,1,1
12,4,40,!splow,!sho_dRegen,24,O,"""O""",616,True,1,1
12,5,51,!sphigh,!ele_Ohr,45,X,"""X""",454,True,1,1
12,6,120,!splow,!ele_Fuß,24,O,"""O""",590,True,1,1
12,7,129,!sphigh,!tab_clot,45,X,"""X""",524,True,1,1
12,8,59,!splow,!tab_Bein,24,O,"""O""",464,True,1,1
12,9,122,!sphigh,!hou_atti,45,X,"""X""",423,True,1,1
12,10,115,!splow,!hou_cell,24,O,"""O""",459,True,1,1
12,11,102,!sphigh,!tre_leav,45,X,"""X""",680,True,1,1
12,12,81,!splow,!tre_root,24,O,"""O""",500,True,1,1
12,13,108,!sphigh,!sho_lace,45,X,"""X""",521,True,1,1
12,14,93,!splow,!sho_sole,24,O,"""O""",624,True,1,1
12,15,101,!sphigh,!des_Lampe,45,X,"""X""",542,True,1,2
12,16,18,!splow,!des_draw,24,O,"""O""",437,True,1,2
12,17,31,!sphigh,!bot_Deckel,45,X,"""X""",491,True,1,2
12,18,44,!splow,!bot_coas,24,O,"""O""",326,True,1,2
12,19,62,!sphigh,!oce_surf,45,X,"""X""",581,True,1,2
12,20,26,!splow,!oce_floo,24,O,"""O""",373,True,1,2
12,21,15,!sphigh,!Auto_wind,45,X,"""X""",565,True,1,2
12,22,50,!splow,!Auto_whee,24,O,"""O""",544,True,1,2
12,23,105,!sphigh,!cor_stal,45,X,"""X""",382,True,1,2
12,24,42,!splow,!cor_see,24,O,"""O""",351,True,1,2
12,25,89,!sphigh,!bea_snou,45,X,"""X""",470,True,1,2
12,26,52,!splow,!bea_Klaue,24,O,"""O""",435,True,1,2
12,27,98,!sphigh,!bir_Auge,45,X,"""X""",512,True,1,2
12,28,57,!splow,!bir_talo,24,O,"""O""",435,True,1,2
12,29,109,!sphigh,!hor_Mähne,45,X,"""X""",399,True,1,2
12,30,116,!splow,!hor_hoov,45,X,"""O""",472,False,0,2
12,31,68,!sphigh,!bic_Sitz,24,O,"""O""",496,True,1,2
12,32,29,!splow,!bic_Reifen,24,O,"""X""",491,False,0,2
12,33,125,!sphigh,!bed_curt,24,O,"""O""",661,True,1,2
12,34,65,!splow,!bed_Autop,45,X,"""X""",585,True,1,2
12,35,71,!sphigh,!flo_peta,24,O,"""O""",438,True,1,2
12,36,76,!splow,!flo_Stiel,45,X,"""X""",551,True,1,2
12,37,128,!sphigh,!hot_Dach,24,O,"""O""",559,True,1,2
12,38,123,!splow,!hot_lobb,45,X,"""X""",520,True,1,2
12,39,127,!sphigh,!mus_Deckel,24,O,"""O""",473,True,1,2
12,40,67,!splow,!mus_stal,45,X,"""X""",357,True,1,2
12,41,24,!sphigh,!bro_hand,24,O,"""O""",474,True,1,2
12,42,104,!splow,!bro_bris,45,X,"""X""",487,True,1,2
12,43,96,!sphigh,!mou_Gipfel,24,O,"""O""",467,True,1,2
12,44,34,!splow,!mou_Tal,45,X,"""X""",464,True,1,2
12,45,20,!sphigh,!rai_clou,24,O,"""O""",542,True,1,1
12,46,74,!splow,!rai_pudd,45,X,"""X""",683,True,1,1
12,47,117,!sphigh,!Hund_coll,24,O,"""O""",398,True,1,1
12,48,46,!splow,!Hund_paw,45,X,"""X""",604,True,1,1
12,49,54,!sphigh,!coc_Baum,24,O,"""O""",372,True,1,1
12,50,132,!splow,!coc_Milch,45,X,"""X""",441,True,1,1
12,51,41,!sphigh,!clo_towe,24,O,"""O""",784,True,1,1
12,52,97,!splow,!clo_radi,45,X,"""X""",476,True,1,1
12,53,53,!sphigh,!chu_stee,24,O,"""O""",381,True,1,1
12,54,103,!splow,!chu_Kirchenbank,45,X,"""X""",439,True,1,1
12,55,69,!sphigh,!ste_ligh,24,O,"""O""",522,True,1,1
12,56,114,!splow,!ste_cor,45,X,"""X""",335,True,1,1
12,57,85,!sphigh,!flo_Lampee,24,O,"""O""",365,True,1,1
12,58,70,!splow,!flo_Läufer,45,X,"""X""",392,True,1,1
12,59,37,!sphigh,!tro_buck,24,O,"""O""",450,True,1,1
12,60,111,!splow,!tro_Saum,45,X,"""X""",376,True,1,1
13,1,80,!sphigh,!Kuh_Hut,45,X,"""X""",634,True,1,1
13,2,61,!splow,!Kuh_Stiefel,24,O,"""O""",548,True,1,1
13,3,26,!sphigh,!sho_Duschkopf,45,X,"""X""",432,True,1,1
13,4,51,!splow,!sho_dRegen,24,O,"""O""",463,True,1,1
13,5,45,!sphigh,!ele_Ohr,45,X,"""X""",442,True,1,1
13,6,42,!splow,!ele_Fuß,24,O,"""O""",513,True,1,1
13,7,41,!sphigh,!tab_clot,45,X,"""X""",428,True,1,1
13,8,101,!splow,!tab_Bein,24,O,"""O""",520,True,1,1
13,9,54,!sphigh,!hou_atti,45,X,"""X""",485,True,1,1
13,10,91,!splow,!hou_cell,24,O,"""O""",694,True,1,1
13,11,36,!sphigh,!tre_leav,45,X,"""X""",459,True,1,1
13,12,125,!splow,!tre_root,24,O,"""O""",526,True,1,1
13,13,33,!sphigh,!sho_lace,45,X,"""X""",495,True,1,1
13,14,73,!splow,!sho_sole,24,O,"""O""",549,True,1,1
13,15,49,!sphigh,!des_Lampe,45,X,"""X""",413,True,1,2
13,16,112,!splow,!des_draw,24,O,"""O""",485,True,1,2
13,17,113,!sphigh,!bot_Deckel,45,X,"""X""",600,True,1,2
13,18,87,!splow,!bot_coas,24,O,"""O""",402,True,1,2
13,19,104,!sphigh,!oce_surf,45,X,"""X""",412,True,1,2
13,20,13,!splow,!oce_floo,24,O,"""O""",358,True,1,2
13,21,38,!sphigh,!Auto_wind,45,X,"""X""",527,True,1,2
13,22,82,!splow,!Auto_whee,24,O,"""O""",577,True,1,2
13,23,69,!sphigh,!cor_stal,45,X,"""X""",507,True,1,2
13,24,65,!splow,!cor_see,24,O,"""O""",519,True,1,2
13,25,68,!sphigh,!bea_snou,45,X,"""X""",387,True,1,2
13,26,102,!splow,!bea_Klaue,24,O,"""O""",548,True,1,2
13,27,84,!sphigh,!bir_Auge,45,X,"""X""",414,True,1,2
13,28,44,!splow,!bir_talo,24,O,"""O""",418,True,1,2
13,29,76,!sphigh,!hor_Mähne,45,X,"""X""",446,True,1,2
13,30,39,!splow,!hor_hoov,24,O,"""O""",334,True,1,2
13,31,83,!sphigh,!bic_Sitz,24,O,"""O""",411,True,1,2
13,32,111,!splow,!bic_Reifen,45,X,"""X""",548,True,1,2
13,33,126,!sphigh,!bed_curt,24,O,"""O""",499,True,1,2
13,34,40,!splow,!bed_Autop,45,X,"""X""",438,True,1,2
13,35,37,!sphigh,!flo_peta,24,O,"""O""",434,True,1,2
13,36,123,!splow,!flo_Stiel,45,X,"""X""",574,True,1,2
13,37,63,!sphigh,!hot_Dach,24,O,"""O""",455,True,1,2
13,38,106,!splow,!hot_lobb,45,X,"""X""",675,True,1,2
13,39,43,!sphigh,!mus_Deckel,24,O,"""O""",417,True,1,2
13,40,20,!splow,!mus_stal,45,X,"""X""",524,True,1,2
13,41,116,!sphigh,!bro_hand,24,O,"""O""",556,True,1,2
13,42,100,!splow,!bro_bris,45,X,"""X""",483,True,1,2
13,43,78,!sphigh,!mou_Gipfel,24,O,"""O""",566,True,1,2
13,44,107,!splow,!mou_Tal,45,X,"""X""",440,True,1,2
13,45,120,!sphigh,!rai_clou,24,O,"""O""",459,True,1,1
13,46,98,!splow,!rai_pudd,24,O,"""X""",596,False,0,1
13,47,94,!sphigh,!Hund_coll,24,O,"""O""",375,True,1,1
13,48,28,!splow,!Hund_paw,45,X,"""X""",525,True,1,1
13,49,77,!sphigh,!coc_Baum,24,O,"""O""",439,True,1,1
13,50,50,!splow,!coc_Milch,45,X,"""X""",413,True,1,1
13,51,23,!sphigh,!clo_towe,24,O,"""O""",374,True,1,1
13,52,88,!splow,!clo_radi,45,X,"""X""",376,True,1,1
13,53,117,!sphigh,!chu_stee,24,O,"""O""",549,True,1,1
13,54,52,!splow,!chu_Kirchenbank,45,X,"""X""",476,True,1,1
13,55,31,!sphigh,!ste_ligh,24,O,"""O""",359,True,1,1
13,56,130,!splow,!ste_cor,45,X,"""X""",487,True,1,1
13,57,81,!sphigh,!flo_Lampee,24,O,"""O""",419,True,1,1
13,58,48,!splow,!flo_Läufer,45,X,"""X""",389,True,1,1
13,59,122,!sphigh,!tro_buck,24,O,"""O""",606,True,1,1
13,60,89,!splow,!tro_Saum,45,X,"""X""",401,True,1,1
14,1,19,!sphigh,!Kuh_Hut,45,X,"""X""",631,True,1,1
14,2,111,!splow,!Kuh_Stiefel,24,O,"""O""",530,True,1,1
14,3,56,!sphigh,!sho_Duschkopf,45,X,"""X""",504,True,1,1
14,4,58,!splow,!sho_dRegen,24,O,"""O""",567,True,1,1
14,5,25,!sphigh,!ele_Ohr,45,X,"""X""",467,True,1,1
14,6,21,!splow,!ele_Fuß,24,O,"""O""",417,True,1,1
14,7,100,!sphigh,!tab_clot,45,X,"""X""",531,True,1,1
14,8,66,!splow,!tab_Bein,24,O,"""O""",476,True,1,1
14,9,92,!sphigh,!hou_atti,45,X,"""X""",469,True,1,1
14,10,87,!splow,!hou_cell,24,O,"""O""",330,True,1,1
14,11,61,!sphigh,!tre_leav,45,X,"""X""",523,True,1,1
14,12,67,!splow,!tre_root,24,O,"""O""",380,True,1,1
14,13,54,!sphigh,!sho_lace,45,X,"""X""",606,True,1,1
14,14,132,!splow,!sho_sole,24,O,"""O""",426,True,1,1
14,15,16,!sphigh,!des_Lampe,45,X,"""X""",559,True,1,2
14,16,81,!splow,!des_draw,24,O,"""O""",506,True,1,2
14,17,97,!sphigh,!bot_Deckel,45,X,"""X""",423,True,1,2
14,18,30,!splow,!bot_coas,24,O,"""O""",429,True,1,2
14,19,69,!sphigh,!oce_surf,45,X,"""X""",345,True,1,2
14,20,34,!splow,!oce_floo,24,O,"""O""",432,True,1,2
14,21,93,!sphigh,!Auto_wind,45,X,"""X""",493,True,1,2
14,22,45,!splow,!Auto_whee,24,O,"""O""",478,True,1,2
14,23,83,!sphigh,!cor_stal,45,X,"""X""",485,True,1,2
14,24,23,!splow,!cor_see,24,O,"""O""",481,True,1,2
14,25,75,!sphigh,!bea_snou,45,X,"""X""",449,True,1,2
14,26,14,!splow,!bea_Klaue,24,O,"""O""",395,True,1,2
14,27,51,!sphigh,!bir_Auge,45,X,"""X""",471,True,1,2
14,28,85,!splow,!bir_talo,24,O,"""O""",384,True,1,2
14,29,17,!sphigh,!hor_Mähne,45,X,"""X""",496,True,1,2
14,30,104,!splow,!hor_hoov,24,O,"""O""",442,True,1,2
14,31,118,!sphigh,!bic_Sitz,24,O,"""O""",520,True,1,2
14,32,108,!splow,!bic_Reifen,45,X,"""X""",580,True,1,2
14,33,117,!sphigh,!bed_curt,24,O,"""O""",402,True,1,2
14,34,37,!splow,!bed_Autop,45,X,"""X""",522,True,1,2
14,35,57,!sphigh,!flo_peta,24,O,"""O""",421,True,1,2
14,36,121,!splow,!flo_Stiel,45,X,"""X""",461,True,1,2
14,37,33,!sphigh,!hot_Dach,24,O,"""O""",500,True,1,2
14,38,80,!splow,!hot_lobb,45,X,"""X""",596,True,1,2
14,39,53,!sphigh,!mus_Deckel,24,O,"""O""",392,True,1,2
14,40,24,!splow,!mus_stal,45,X,"""X""",562,True,1,2
14,41,89,!sphigh,!bro_hand,24,O,"""O""",388,True,1,2
14,42,79,!splow,!bro_bris,45,X,"""X""",642,True,1,2
14,43,38,!sphigh,!mou_Gipfel,24,O,"""O""",459,True,1,2
14,44,71,!splow,!mou_Tal,45,X,"""X""",489,True,1,2
14,45,115,!sphigh,!rai_clou,24,O,"""O""",390,True,1,1
14,46,36,!splow,!rai_pudd,45,X,"""X""",465,True,1,1
14,47,120,!sphigh,!Hund_coll,24,O,"""O""",395,True,1,1
14,48,55,!splow,!Hund_paw,45,X,"""X""",440,True,1,1
14,49,59,!sphigh,!coc_Baum,24,O,"""O""",435,True,1,1
14,50,20,!splow,!coc_Milch,45,X,"""X""",471,True,1,1
14,51,110,!sphigh,!clo_towe,24,O,"""O""",433,True,1,1
14,52,94,!splow,!clo_radi,45,X,"""X""",382,True,1,1
14,53,129,!sphigh,!chu_stee,24,O,"""O""",362,True,1,1
14,54,88,!splow,!chu_Kirchenbank,45,X,"""X""",431,True,1,1
14,55,126,!sphigh,!ste_ligh,24,O,"""O""",330,True,1,1
14,56,84,!splow,!ste_cor,45,X,"""X""",440,True,1,1
14,57,68,!sphigh,!flo_Lampee,24,O,"""O""",358,True,1,1
14,58,95,!splow,!flo_Läufer,45,X,"""X""",378,True,1,1
14,59,131,!sphigh,!tro_buck,24,O,"""O""",341,True,1,1
14,60,26,!splow,!tro_Saum,45,X,"""X""",578,True,1,1
101,1,110,!sphigh,!Kuh_Hut,45,X,"""X""",549,True,1,1
101,2,41,!splow,!Kuh_Stiefel,24,O,"""O""",557,True,1,1
101,3,99,!sphigh,!sho_Duschkopf,24,O,"""X""",595,False,0,1
101,4,24,!splow,!sho_dRegen,24,O,"""O""",786,True,1,1
101,5,70,!sphigh,!ele_Ohr,45,X,"""X""",624,True,1,1
101,6,102,!splow,!ele_Fuß,24,O,"""O""",577,True,1,1
101,7,89,!sphigh,!tab_clot,45,X,"""X""",778,True,1,1
101,8,96,!splow,!tab_Bein,24,O,"""O""",429,True,1,1
101,9,125,!sphigh,!hou_atti,45,X,"""X""",581,True,1,1
101,10,93,!splow,!hou_cell,24,O,"""O""",571,True,1,1
101,11,59,!sphigh,!tre_leav,45,X,"""X""",588,True,1,1
101,12,76,!splow,!tre_root,24,O,"""O""",586,True,1,1
101,13,23,!sphigh,!sho_lace,45,X,"""X""",496,True,1,1
101,14,92,!splow,!sho_sole,24,O,"""O""",667,True,1,1
101,15,124,!sphigh,!des_Lampe,45,X,"""X""",514,True,1,2
101,16,60,!splow,!des_draw,24,O,"""O""",862,True,1,2
101,17,36,!sphigh,!bot_Deckel,45,X,"""X""",523,True,1,2
101,18,37,!splow,!bot_coas,24,O,"""O""",609,True,1,2
101,19,88,!sphigh,!oce_surf,45,X,"""X""",456,True,1,2
101,20,64,!splow,!oce_floo,24,O,"""O""",1039,True,1,2
101,21,31,!sphigh,!Auto_wind,45,X,"""X""",526,True,1,2
101,22,39,!splow,!Auto_whee,24,O,"""O""",410,True,1,2
101,23,104,!sphigh,!cor_stal,45,X,"""X""",527,True,1,2
101,24,111,!splow,!cor_see,24,O,"""O""",633,True,1,2
101,25,130,!sphigh,!bea_snou,45,X,"""X""",492,True,1,2
101,26,95,!splow,!bea_Klaue,24,O,"""O""",603,True,1,2
101,27,32,!sphigh,!bir_Auge,45,X,"""X""",516,True,1,2
101,28,53,!splow,!bir_talo,24,O,"""O""",566,True,1,2
101,29,123,!sphigh,!hor_Mähne,45,X,"""X""",512,True,1,2
101,30,75,!splow,!hor_hoov,24,O,"""O""",625,True,1,2
101,31,113,!sphigh,!bic_Sitz,24,O,"""O""",622,True,1,2
101,32,22,!splow,!bic_Reifen,45,X,"""X""",429,True,1,2
101,33,34,!sphigh,!bed_curt,24,O,"""O""",541,True,1,2
101,34,117,!splow,!bed_Autop,45,X,"""X""",507,True,1,2
101,35,87,!sphigh,!flo_peta,24,O,"""O""",682,True,1,2
101,36,15,!splow,!flo_Stiel,45,X,"""X""",560,True,1,2
101,37,57,!sphigh,!hot_Dach,45,X,"""O""",444,False,0,2
101,38,71,!splow,!hot_lobb,45,X,"""X""",474,True,1,2
101,39,65,!sphigh,!mus_Deckel,24,O,"""O""",542,True,1,2
101,40,84,!splow,!mus_stal,45,X,"""X""",588,True,1,2
101,41,97,!sphigh,!bro_hand,24,O,"""O""",425,True,1,2
101,42,49,!splow,!bro_bris,45,X,"""X""",593,True,1,2
101,43,33,!sphigh,!mou_Gipfel,24,O,"""O""",641,True,1,2
101,44,86,!splow,!mou_Tal,45,X,"""X""",616,True,1,2
101,45,120,!sphigh,!rai_clou,24,O,"""O""",601,True,1,1
101,46,73,!splow,!rai_pudd,45,X,"""X""",567,True,1,1
101,47,100,!sphigh,!Hund_coll,24,O,"""O""",920,True,1,1
101,48,20,!splow,!Hund_paw,45,X,"""X""",447,True,1,1
101,49,115,!sphigh,!coc_Baum,24,O,"""O""",538,True,1,1
101,50,55,!splow,!coc_Milch,45,X,"""X""",554,True,1,1
101,51,56,!sphigh,!clo_towe,24,O,"""O""",595,True,1,1
101,52,72,!splow,!clo_radi,45,X,"""X""",531,True,1,1
101,53,101,!sphigh,!chu_stee,24,O,"""O""",452,True,1,1
101,54,16,!splow,!chu_Kirchenbank,45,X,"""X""",594,True,1,1
101,55,118,!sphigh,!ste_ligh,24,O,"""O""",770,True,1,1
101,56,121,!splow,!ste_cor,45,X,"""X""",531,True,1,1
101,57,66,!sphigh,!flo_Lampee,24,O,"""O""",698,True,1,1
101,58,81,!splow,!flo_Läufer,45,X,"""X""",506,True,1,1
101,59,69,!sphigh,!tro_buck,24,O,"""O""",623,True,1,1
101,60,127,!splow,!tro_Saum,45,X,"""X""",839,True,1,1
102,1,111,!sphigh,!Kuh_Hut,45,X,"""X""",705,True,1,1
102,2,89,!splow,!Kuh_Stiefel,24,O,"""O""",453,True,1,1
102,3,123,!sphigh,!sho_Duschkopf,45,X,"""X""",486,True,1,1
102,4,23,!splow,!sho_dRegen,24,O,"""O""",496,True,1,1
102,5,71,!sphigh,!ele_Ohr,45,X,"""X""",413,True,1,1
102,6,115,!splow,!ele_Fuß,24,O,"""O""",447,True,1,1
102,7,47,!sphigh,!tab_clot,45,X,"""X""",360,True,1,1
102,8,55,!splow,!tab_Bein,24,O,"""O""",444,True,1,1
102,9,67,!sphigh,!hou_atti,45,X,"""X""",465,True,1,1
102,10,56,!splow,!hou_cell,24,O,"""O""",469,True,1,1
102,11,25,!sphigh,!tre_leav,45,X,"""X""",536,True,1,1
102,12,119,!splow,!tre_root,24,O,"""O""",419,True,1,1
102,13,49,!sphigh,!sho_lace,45,X,"""X""",444,True,1,1
102,14,33,!splow,!sho_sole,24,O,"""O""",492,True,1,1
102,15,73,!sphigh,!des_Lampe,45,X,"""X""",323,True,1,2
102,16,30,!splow,!des_draw,24,O,"""O""",375,True,1,2
102,17,60,!sphigh,!bot_Deckel,45,X,"""X""",374,True,1,2
102,18,81,!splow,!bot_coas,24,O,"""O""",372,True,1,2
102,19,57,!sphigh,!oce_surf,45,X,"""X""",372,True,1,2
102,20,37,!splow,!oce_floo,24,O,"""O""",438,True,1,2
102,21,20,!sphigh,!Auto_wind,45,X,"""X""",423,True,1,2
102,22,105,!splow,!Auto_whee,24,O,"""O""",375,True,1,2
102,23,19,!sphigh,!cor_stal,45,X,"""X""",380,True,1,2
102,24,70,!splow,!cor_see,24,O,"""O""",381,True,1,2
102,25,125,!sphigh,!bea_snou,45,X,"""X""",409,True,1,2
102,26,117,!splow,!bea_Klaue,24,O,"""O""",313,True,1,2
102,27,90,!sphigh,!bir_Auge,45,X,"""X""",335,True,1,2
102,28,112,!splow,!bir_talo,24,O,"""O""",308,True,1,2
102,29,77,!sphigh,!hor_Mähne,45,X,"""X""",315,True,1,2
102,30,98,!splow,!hor_hoov,24,O,"""O""",424,True,1,2
102,31,130,!sphigh,!bic_Sitz,24,O,"""O""",379,True,1,2
102,32,63,!splow,!bic_Reifen,45,X,"""X""",460,True,1,2
102,33,88,!sphigh,!bed_curt,24,O,"""O""",445,True,1,2
102,34,22,!splow,!bed_Autop,24,O,"""X""",387,False,0,2
102,35,99,!sphigh,!flo_peta,24,O,"""O""",419,True,1,2
102,36,79,!splow,!flo_Stiel,45,X,"""X""",342,True,1,2
102,37,103,!sphigh,!hot_Dach,24,O,"""O""",412,True,1,2
102,38,32,!splow,!hot_lobb,45,X,"""X""",528,True,1,2
102,39,114,!sphigh,!mus_Deckel,24,O,"""O""",521,True,1,2
102,40,108,!splow,!mus_stal,45,X,"""X""",456,True,1,2
102,41,132,!sphigh,!bro_hand,24,O,"""O""",468,True,1,2
102,42,34,!splow,!bro_bris,45,X,"""X""",455,True,1,2
102,43,14,!sphigh,!mou_Gipfel,24,O,"""O""",402,True,1,2
102,44,96,!splow,!mou_Tal,45,X,"""X""",359,True,1,2
102,45,45,!sphigh,!rai_clou,24,O,"""O""",425,True,1,1
102,46,69,!splow,!rai_pudd,45,X,"""X""",352,True,1,1
102,47,48,!sphigh,!Hund_coll,24,O,"""O""",370,True,1,1
102,48,75,!splow,!Hund_paw,45,X,"""X""",334,True,1,1
102,49,24,!sphigh,!coc_Baum,24,O,"""O""",386,True,1,1
102,50,107,!splow,!coc_Milch,45,X,"""X""",541,True,1,1
102,51,41,!sphigh,!clo_towe,24,O,"""O""",389,True,1,1
102,52,36,!splow,!clo_radi,45,X,"""X""",332,True,1,1
102,53,46,!sphigh,!chu_stee,24,O,"""O""",399,True,1,1
102,54,116,!splow,!chu_Kirchenbank,45,X,"""X""",444,True,1,1
102,55,62,!sphigh,!ste_ligh,24,O,"""O""",454,True,1,1
102,56,59,!splow,!ste_cor,45,X,"""X""",453,True,1,1
102,57,83,!sphigh,!flo_Lampee,24,O,"""O""",376,True,1,1
102,58,54,!splow,!flo_Läufer,45,X,"""X""",440,True,1,1
102,59,31,!sphigh,!tro_buck,24,O,"""O""",350,True,1,1
102,60,91,!splow,!tro_Saum,45,X,"""X""",437,True,1,1
103,1,127,!sphigh,!Kuh_Hut,45,X,"""X""",451,True,1,1
103,2,72,!splow,!Kuh_Stiefel,24,O,"""O""",561,True,1,1
103,3,102,!sphigh,!sho_Duschkopf,45,X,"""X""",417,True,1,1
103,4,106,!splow,!sho_dRegen,24,O,"""O""",387,True,1,1
103,5,32,!sphigh,!ele_Ohr,24,O,"""X""",656,False,0,1
103,6,27,!splow,!ele_Fuß,24,O,"""O""",393,True,1,1
103,7,39,!sphigh,!tab_clot,45,X,"""X""",540,True,1,1
103,8,131,!splow,!tab_Bein,24,O,"""O""",549,True,1,1
103,9,35,!sphigh,!hou_atti,45,X,"""X""",400,True,1,1
103,10,103,!splow,!hou_cell,24,O,"""O""",528,True,1,1
103,11,60,!sphigh,!tre_leav,45,X,"""X""",689,True,1,1
103,12,48,!splow,!tre_root,24,O,"""O""",578,True,1,1
103,13,23,!sphigh,!sho_lace,45,X,"""X""",382,True,1,1
103,14,119,!splow,!sho_sole,24,O,"""O""",532,True,1,1
103,15,73,!sphigh,!des_Lampe,45,X,"""X""",582,True,1,2
103,16,29,!splow,!des_draw,24,O,"""O""",399,True,1,2
103,17,77,!sphigh,!bot_Deckel,45,X,"""X""",500,True,1,2
103,18,31,!splow,!bot_coas,24,O,"""O""",468,True,1,2
103,19,24,!sphigh,!oce_surf,45,X,"""X""",585,True,1,2
103,20,34,!splow,!oce_floo,24,O,"""O""",680,True,1,2
103,21,129,!sphigh,!Auto_wind,45,X,"""X""",433,True,1,2
103,22,52,!splow,!Auto_whee,24,O,"""O""",494,True,1,2
103,23,37,!sphigh,!cor_stal,45,X,"""X""",527,True,1,2
103,24,95,!splow,!cor_see,24,O,"""O""",455,True,1,2
103,25,110,!sphigh,!bea_snou,45,X,"""X""",447,True,1,2
103,26,130,!splow,!bea_Klaue,24,O,"""O""",318,True,1,2
103,27,75,!sphigh,!bir_Auge,45,X,"""X""",480,True,1,2
103,28,132,!splow,!bir_talo,24,O,"""O""",519,True,1,2
103,29,15,!sphigh,!hor_Mähne,45,X,"""X""",394,True,1,2
103,30,115,!splow,!hor_hoov,24,O,"""O""",430,True,1,2
103,31,78,!sphigh,!bic_Sitz,24,O,"""O""",485,True,1,2
103,32,111,!splow,!bic_Reifen,45,X,"""X""",415,True,1,2
103,33,93,!sphigh,!bed_curt,24,O,"""O""",551,True,1,2
103,34,107,!splow,!bed_Autop,45,X,"""X""",389,True,1,2
103,35,57,!sphigh,!flo_peta,45,X,"""O""",467,False,0,2
103,36,84,!splow,!flo_Stiel,45,X,"""X""",908,True,1,2
103,37,46,!sphigh,!hot_Dach,24,O,"""O""",614,True,1,2
103,38,14,!splow,!hot_lobb,45,X,"""X""",335,True,1,2
103,39,58,!sphigh,!mus_Deckel,24,O,"""O""",595,True,1,2
103,40,22,!splow,!mus_stal,45,X,"""X""",565,True,1,2
103,41,13,!sphigh,!bro_hand,24,O,"""O""",380,True,1,2
103,42,65,!splow,!bro_bris,45,X,"""X""",481,True,1,2
103,43,97,!sphigh,!mou_Gipfel,24,O,"""O""",617,True,1,2
103,44,18,!splow,!mou_Tal,45,X,"""X""",458,True,1,2
103,45,16,!sphigh,!rai_clou,24,O,"""O""",354,True,1,1
103,46,124,!splow,!rai_pudd,45,X,"""X""",501,True,1,1
103,47,105,!sphigh,!Hund_coll,24,O,"""O""",514,True,1,1
103,48,41,!splow,!Hund_paw,45,X,"""X""",467,True,1,1
103,49,100,!sphigh,!coc_Baum,24,O,"""O""",497,True,1,1
103,50,79,!splow,!coc_Milch,45,X,"""X""",610,True,1,1
103,51,91,!sphigh,!clo_towe,24,O,"""O""",490,True,1,1
103,52,42,!splow,!clo_radi,45,X,"""X""",421,True,1,1
103,53,61,!sphigh,!chu_stee,24,O,"""O""",434,True,1,1
103,54,26,!splow,!chu_Kirchenbank,45,X,"""X""",397,True,1,1
103,55,45,!sphigh,!ste_ligh,24,O,"""O""",463,True,1,1
103,56,98,!splow,!ste_cor,45,X,"""X""",494,True,1,1
103,57,86,!sphigh,!flo_Lampee,24,O,"""O""",449,True,1,1
103,58,80,!splow,!flo_Läufer,45,X,"""X""",446,True,1,1
103,59,69,!sphigh,!tro_buck,24,O,"""O""",484,True,1,1
103,60,104,!splow,!tro_Saum,45,X,"""X""",387,True,1,1
104,1,56,!sphigh,!Kuh_Hut,24,O,"""X""",486,False,0,1
104,2,70,!splow,!Kuh_Stiefel,24,O,"""O""",547,True,1,1
104,3,28,!sphigh,!sho_Duschkopf,45,X,"""X""",543,True,1,1
104,4,96,!splow,!sho_dRegen,24,O,"""O""",580,True,1,1
104,5,117,!sphigh,!ele_Ohr,45,X,"""X""",544,True,1,1
104,6,61,!splow,!ele_Fuß,24,O,"""O""",474,True,1,1
104,7,73,!sphigh,!tab_clot,45,X,"""X""",584,True,1,1
104,8,123,!splow,!tab_Bein,24,O,"""O""",644,True,1,1
104,9,112,!sphigh,!hou_atti,45,X,"""X""",570,True,1,1
104,10,79,!splow,!hou_cell,24,O,"""O""",582,True,1,1
104,11,107,!sphigh,!tre_leav,45,X,"""X""",503,True,1,1
104,12,41,!splow,!tre_root,24,O,"""O""",582,True,1,1
104,13,44,!sphigh,!sho_lace,45,X,"""X""",638,True,1,1
104,14,53,!splow,!sho_sole,24,O,"""O""",453,True,1,1
104,15,88,!sphigh,!des_Lampe,45,X,"""X""",447,True,1,2
104,16,77,!splow,!des_draw,24,O,"""O""",417,True,1,2
104,17,82,!sphigh,!bot_Deckel,45,X,"""X""",673,True,1,2
104,18,115,!splow,!bot_coas,24,O,"""O""",399,True,1,2
104,19,97,!sphigh,!oce_surf,45,X,"""X""",510,True,1,2
104,20,55,!splow,!oce_floo,24,O,"""O""",342,True,1,2
104,21,113,!sphigh,!Auto_wind,45,X,"""X""",516,True,1,2
104,22,74,!splow,!Auto_whee,24,O,"""O""",357,True,1,2
104,23,15,!sphigh,!cor_stal,45,X,"""X""",525,True,1,2
104,24,90,!splow,!cor_see,24,O,"""O""",439,True,1,2
104,25,92,!sphigh,!bea_snou,45,X,"""X""",433,True,1,2
104,26,34,!splow,!bea_Klaue,24,O,"""O""",484,True,1,2
104,27,128,!sphigh,!bir_Auge,45,X,"""X""",481,True,1,2
104,28,131,!splow,!bir_talo,24,O,"""O""",404,True,1,2
104,29,110,!sphigh,!hor_Mähne,45,X,"""X""",513,True,1,2
104,30,36,!splow,!hor_hoov,24,O,"""O""",449,True,1,2
104,31,32,!sphigh,!bic_Sitz,24,O,"""O""",593,True,1,2
104,32,105,!splow,!bic_Reifen,45,X,"""X""",424,True,1,2
104,33,46,!sphigh,!bed_curt,24,O,"""O""",494,True,1,2
104,34,130,!splow,!bed_Autop,45,X,"""X""",561,True,1,2
104,35,118,!sphigh,!flo_peta,24,O,"""O""",534,True,1,2
104,36,22,!splow,!flo_Stiel,45,X,"""X""",608,True,1,2
104,37,104,!sphigh,!hot_Dach,24,O,"""O""",578,True,1,2
104,38,33,!splow,!hot_lobb,45,X,"""X""",531,True,1,2
104,39,16,!sphigh,!mus_Deckel,24,O,"""O""",472,True,1,2
104,40,98,!splow,!mus_stal,45,X,"""X""",664,True,1,2
104,41,93,!sphigh,!bro_hand,24,O,"""O""",430,True,1,2
104,42,14,!splow,!bro_bris,45,X,"""X""",527,True,1,2
104,43,99,!sphigh,!mou_Gipfel,24,O,"""O""",528,True,1,2
104,44,83,!splow,!mou_Tal,24,O,"""X""",461,False,0,2
104,45,66,!sphigh,!rai_clou,24,O,"""O""",437,True,1,1
104,46,30,!splow,!rai_pudd,45,X,"""X""",513,True,1,1
104,47,116,!sphigh,!Hund_coll,24,O,"""O""",477,True,1,1
104,48,71,!splow,!Hund_paw,45,X,"""X""",501,True,1,1
104,49,75,!sphigh,!coc_Baum,24,O,"""O""",463,True,1,1
104,50,50,!splow,!coc_Milch,45,X,"""X""",386,True,1,1
104,51,80,!sphigh,!clo_towe,24,O,"""O""",491,True,1,1
104,52,13,!splow,!clo_radi,45,X,"""X""",616,True,1,1
104,53,24,!sphigh,!chu_stee,24,O,"""O""",472,True,1,1
104,54,21,!splow,!chu_Kirchenbank,45,X,"""X""",493,True,1,1
104,55,37,!sphigh,!ste_ligh,24,O,"""O""",419,True,1,1
104,56,49,!splow,!ste_cor,45,X,"""X""",422,True,1,1
104,57,27,!sphigh,!flo_Lampee,24,O,"""O""",479,True,1,1
104,58,52,!splow,!flo_Läufer,45,X,"""X""",381,True,1,1
104,59,19,!sphigh,!tro_buck,24,O,"""O""",377,True,1,1
104,60,126,!splow,!tro_Saum,45,X,"""X""",543,True,1,1
110,1,81,!sphigh,!Kuh_Hut,24,O,"""X""",862,False,0,1
110,2,70,!splow,!Kuh_Stiefel,24,O,"""O""",1938,True,1,1
110,3,46,!sphigh,!sho_Duschkopf,45,X,"""X""",573,True,1,1
110,4,64,!splow,!sho_dRegen,24,O,"""O""",537,True,1,1
110,5,49,!sphigh,!ele_Ohr,45,X,"""X""",627,True,1,1
110,6,118,!splow,!ele_Fuß,24,O,"""O""",416,True,1,1
110,7,34,!sphigh,!tab_clot,45,X,"""X""",549,True,1,1
110,8,58,!splow,!tab_Bein,24,O,"""O""",642,True,1,1
110,9,97,!sphigh,!hou_atti,45,X,"""X""",664,True,1,1
110,10,130,!splow,!hou_cell,24,O,"""O""",393,True,1,1
110,11,21,!sphigh,!tre_leav,45,X,"""X""",1040,True,1,1
110,12,33,!splow,!tre_root,24,O,"""O""",368,True,1,1
110,13,93,!sphigh,!sho_lace,45,X,"""X""",584,True,1,1
110,14,71,!splow,!sho_sole,24,O,"""O""",493,True,1,1
110,15,116,!sphigh,!des_Lampe,45,X,"""X""",590,True,1,2
110,16,74,!splow,!des_draw,24,O,"""O""",494,True,1,2
110,17,86,!sphigh,!bot_Deckel,45,X,"""X""",554,True,1,2
110,18,56,!splow,!bot_coas,24,O,"""O""",422,True,1,2
110,19,47,!sphigh,!oce_surf,45,X,"""X""",439,True,1,2
110,20,65,!splow,!oce_floo,24,O,"""O""",495,True,1,2
110,21,85,!sphigh,!Auto_wind,45,X,"""X""",614,True,1,2
110,22,18,!splow,!Auto_whee,24,O,"""O""",427,True,1,2
110,23,67,!sphigh,!cor_stal,45,X,"""X""",498,True,1,2
110,24,41,!splow,!cor_see,24,O,"""O""",629,True,1,2
110,25,83,!sphigh,!bea_snou,45,X,"""X""",504,True,1,2
110,26,112,!splow,!bea_Klaue,24,O,"""O""",404,True,1,2
110,27,115,!sphigh,!bir_Auge,45,X,"""X""",446,True,1,2
110,28,54,!splow,!bir_talo,24,O,"""O""",422,True,1,2
110,29,30,!sphigh,!hor_Mähne,45,X,"""X""",495,True,1,2
110,30,72,!splow,!hor_hoov,24,O,"""O""",553,True,1,2
110,31,122,!sphigh,!bic_Sitz,24,O,"""O""",395,True,1,2
110,32,42,!splow,!bic_Reifen,45,X,"""X""",596,True,1,2
110,33,73,!sphigh,!bed_curt,24,O,"""O""",567,True,1,2
110,34,84,!splow,!bed_Autop,45,X,"""X""",604,True,1,2
110,35,51,!sphigh,!flo_peta,24,O,"""O""",649,True,1,2
110,36,28,!splow,!flo_Stiel,45,X,"""X""",794,True,1,2
110,37,32,!sphigh,!hot_Dach,24,O,"""O""",594,True,1,2
110,38,123,!splow,!hot_lobb,45,X,"""X""",545,True,1,2
110,39,114,!sphigh,!mus_Deckel,24,O,"""O""",584,True,1,2
110,40,98,!splow,!mus_stal,45,X,"""X""",553,True,1,2
110,41,117,!sphigh,!bro_hand,24,O,"""O""",478,True,1,2
110,42,108,!splow,!bro_bris,45,X,"""X""",548,True,1,2
110,43,131,!sphigh,!mou_Gipfel,24,O,"""O""",468,True,1,2
110,44,59,!splow,!mou_Tal,45,X,"""X""",500,True,1,2
110,45,52,!sphigh,!rai_clou,45,X,"""O""",751,False,0,1
110,46,23,!splow,!rai_pudd,45,X,"""X""",483,True,1,1
110,47,57,!sphigh,!Hund_coll,24,O,"""O""",434,True,1,1
110,48,120,!splow,!Hund_paw,45,X,"""X""",513,True,1,1
110,49,119,!sphigh,!coc_Baum,24,O,"""O""",420,True,1,1
110,50,92,!splow,!coc_Milch,45,X,"""X""",355,True,1,1
110,51,39,!sphigh,!clo_towe,24,O,"""O""",532,True,1,1
110,52,94,!splow,!clo_radi,45,X,"""X""",529,True,1,1
110,53,60,!sphigh,!chu_stee,24,O,"""O""",470,True,1,1
110,54,124,!splow,!chu_Kirchenbank,45,X,"""X""",658,True,1,1
110,55,126,!sphigh,!ste_ligh,24,O,"""O""",373,True,1,1
110,56,87,!splow,!ste_cor,45,X,"""X""",484,True,1,1
110,57,106,!sphigh,!flo_Lampee,24,O,"""O""",493,True,1,1
110,58,76,!splow,!flo_Läufer,45,X,"""X""",366,True,1,1
110,59,20,!sphigh,!tro_buck,24,O,"""O""",426,True,1,1
110,60,14,!splow,!tro_Saum,45,X,"""X""",379,True,1,1
111,1,95,!sphigh,!Kuh_Hut,45,X,"""X""",670,True,1,1
111,2,77,!splow,!Kuh_Stiefel,24,O,"""O""",505,True,1,1
111,3,23,!sphigh,!sho_Duschkopf,45,X,"""X""",615,True,1,1
111,4,93,!splow,!sho_dRegen,24,O,"""O""",596,True,1,1
111,5,59,!sphigh,!ele_Ohr,45,X,"""X""",582,True,1,1
111,6,60,!splow,!ele_Fuß,24,O,"""O""",592,True,1,1
111,7,83,!sphigh,!tab_clot,45,X,"""X""",555,True,1,1
111,8,89,!splow,!tab_Bein,24,O,"""O""",534,True,1,1
111,9,108,!sphigh,!hou_atti,45,X,"""X""",607,True,1,1
111,10,104,!splow,!hou_cell,24,O,"""O""",530,True,1,1
111,11,125,!sphigh,!tre_leav,45,X,"""X""",576,True,1,1
111,12,70,!splow,!tre_root,24,O,"""O""",651,True,1,1
111,13,17,!sphigh,!sho_lace,45,X,"""X""",539,True,1,1
111,14,72,!splow,!sho_sole,24,O,"""O""",682,True,1,1
111,15,115,!sphigh,!des_Lampe,45,X,"""X""",595,True,1,2
111,16,101,!splow,!des_draw,24,O,"""O""",491,True,1,2
111,17,68,!sphigh,!bot_Deckel,45,X,"""X""",490,True,1,2
111,18,30,!splow,!bot_coas,24,O,"""O""",413,True,1,2
111,19,106,!sphigh,!oce_surf,45,X,"""X""",1029,True,1,2
111,20,43,!splow,!oce_floo,24,O,"""O""",568,True,1,2
111,21,62,!sphigh,!Auto_wind,45,X,"""X""",460,True,1,2
111,22,71,!splow,!Auto_whee,24,O,"""O""",586,True,1,2
111,23,76,!sphigh,!cor_stal,45,X,"""X""",414,True,1,2
111,24,96,!splow,!cor_see,24,O,"""O""",529,True,1,2
111,25,128,!sphigh,!bea_snou,45,X,"""X""",326,True,1,2
111,26,13,!splow,!bea_Klaue,24,O,"""O""",511,True,1,2
111,27,75,!sphigh,!bir_Auge,45,X,"""X""",511,True,1,2
111,28,64,!splow,!bir_talo,24,O,"""O""",627,True,1,2
111,29,15,!sphigh,!hor_Mähne,45,X,"""X""",576,True,1,2
111,30,21,!splow,!hor_hoov,24,O,"""O""",417,True,1,2
111,31,131,!sphigh,!bic_Sitz,24,O,"""O""",400,True,1,2
111,32,119,!splow,!bic_Reifen,45,X,"""X""",552,True,1,2
111,33,39,!sphigh,!bed_curt,45,X,"""O""",414,False,0,2
111,34,27,!splow,!bed_Autop,45,X,"""X""",661,True,1,2
111,35,63,!sphigh,!flo_peta,24,O,"""O""",647,True,1,2
111,36,51,!splow,!flo_Stiel,45,X,"""X""",567,True,1,2
111,37,111,!sphigh,!hot_Dach,24,O,"""O""",724,True,1,2
111,38,129,!splow,!hot_lobb,45,X,"""X""",373,True,1,2
111,39,46,!sphigh,!mus_Deckel,24,O,"""O""",511,True,1,2
111,40,47,!splow,!mus_stal,45,X,"""X""",595,True,1,2
111,41,29,!sphigh,!bro_hand,24,O,"""O""",560,True,1,2
111,42,92,!splow,!bro_bris,45,X,"""X""",545,True,1,2
111,43,24,!sphigh,!mou_Gipfel,24,O,"""O""",454,True,1,2
111,44,112,!splow,!mou_Tal,45,X,"""X""",768,True,1,2
111,45,37,!sphigh,!rai_clou,24,O,"""O""",505,True,1,1
111,46,117,!splow,!rai_pudd,45,X,"""X""",541,True,1,1
111,47,102,!sphigh,!Hund_coll,24,O,"""O""",425,True,1,1
111,48,65,!splow,!Hund_paw,45,X,"""X""",472,True,1,1
111,49,22,!sphigh,!coc_Baum,24,O,"""O""",445,True,1,1
111,50,84,!splow,!coc_Milch,45,X,"""X""",523,True,1,1
111,51,113,!sphigh,!clo_towe,24,O,"""O""",434,True,1,1
111,52,124,!splow,!clo_radi,45,X,"""X""",371,True,1,1
111,53,99,!sphigh,!chu_stee,24,O,"""O""",495,True,1,1
111,54,33,!splow,!chu_Kirchenbank,45,X,"""X""",531,True,1,1
111,55,25,!sphigh,!ste_ligh,24,O,"""O""",426,True,1,1
111,56,53,!splow,!ste_cor,45,X,"""X""",508,True,1,1
111,57,58,!sphigh,!flo_Lampee,24,O,"""O""",519,True,1,1
111,58,73,!splow,!flo_Läufer,45,X,"""X""",503,True,1,1
111,59,88,!sphigh,!tro_buck,24,O,"""O""",397,True,1,1
111,60,14,!splow,!tro_Saum,45,X,"""X""",379,True,1,1
112,1,129,!sphigh,!Kuh_Hut,45,X,"""X""",663,True,1,1
112,2,132,!splow,!Kuh_Stiefel,24,O,"""O""",715,True,1,1
112,3,125,!sphigh,!sho_Duschkopf,45,X,"""X""",812,True,1,1
112,4,34,!splow,!sho_dRegen,24,O,"""O""",503,True,1,1
112,5,91,!sphigh,!ele_Ohr,45,X,"""X""",629,True,1,1
112,6,45,!splow,!ele_Fuß,24,O,"""O""",533,True,1,1
112,7,76,!sphigh,!tab_clot,45,X,"""X""",786,True,1,1
112,8,23,!splow,!tab_Bein,24,O,"""O""",711,True,1,1
112,9,72,!sphigh,!hou_atti,45,X,"""X""",553,True,1,1
112,10,107,!splow,!hou_cell,24,O,"""O""",919,True,1,1
112,11,33,!sphigh,!tre_leav,45,X,"""X""",806,True,1,1
112,12,67,!splow,!tre_root,24,O,"""O""",715,True,1,1
112,13,42,!sphigh,!sho_lace,45,X,"""X""",762,True,1,1
112,14,124,!splow,!sho_sole,24,O,"""O""",799,True,1,1
112,15,57,!sphigh,!des_Lampe,45,X,"""X""",969,True,1,2
112,16,60,!splow,!des_draw,24,O,"""O""",493,True,1,2
112,17,117,!sphigh,!bot_Deckel,45,X,"""X""",750,True,1,2
112,18,97,!splow,!bot_coas,24,O,"""O""",695,True,1,2
112,19,90,!sphigh,!oce_surf,45,X,"""X""",427,True,1,2
112,20,54,!splow,!oce_floo,24,O,"""O""",327,True,1,2
112,21,83,!sphigh,!Auto_wind,45,X,"""X""",680,True,1,2
112,22,104,!splow,!Auto_whee,24,O,"""O""",1029,True,1,2
112,23,80,!sphigh,!cor_stal,45,X,"""X""",541,True,1,2
112,24,75,!splow,!cor_see,24,O,"""O""",336,True,1,2
112,25,29,!sphigh,!bea_snou,45,X,"""X""",526,True,1,2
112,26,95,!splow,!bea_Klaue,24,O,"""O""",654,True,1,2
112,27,93,!sphigh,!bir_Auge,45,X,"""X""",1379,True,1,2
112,28,43,!splow,!bir_talo,24,O,"""O""",600,True,1,2
112,29,96,!sphigh,!hor_Mähne,45,X,"""X""",1271,True,1,2
112,30,73,!splow,!hor_hoov,24,O,"""O""",765,True,1,2
112,31,32,!sphigh,!bic_Sitz,24,O,"""O""",939,True,1,2
112,32,26,!splow,!bic_Reifen,24,O,"""X""",471,False,0,2
112,33,111,!sphigh,!bed_curt,24,O,"""O""",984,True,1,2
112,34,18,!splow,!bed_Autop,45,X,"""X""",730,True,1,2
112,35,47,!sphigh,!flo_peta,24,O,"""O""",465,True,1,2
112,36,46,!splow,!flo_Stiel,45,X,"""X""",548,True,1,2
112,37,70,!sphigh,!hot_Dach,24,O,"""O""",586,True,1,2
112,38,62,!splow,!hot_lobb,24,O,"""X""",602,False,0,2
112,39,77,!sphigh,!mus_Deckel,24,O,"""O""",704,True,1,2
112,40,59,!splow,!mus_stal,45,X,"""X""",500,True,1,2
112,41,61,!sphigh,!bro_hand,24,O,"""O""",730,True,1,2
112,42,98,!splow,!bro_bris,45,X,"""X""",1393,True,1,2
112,43,37,!sphigh,!mou_Gipfel,24,O,"""O""",806,True,1,2
112,44,121,!splow,!mou_Tal,45,X,"""X""",957,True,1,2
112,45,55,!sphigh,!rai_clou,24,O,"""O""",430,True,1,1
112,46,21,!splow,!rai_pudd,45,X,"""X""",588,True,1,1
112,47,123,!sphigh,!Hund_coll,24,O,"""O""",1095,True,1,1
112,48,66,!splow,!Hund_paw,45,X,"""X""",675,True,1,1
112,49,116,!sphigh,!coc_Baum,24,O,"""O""",732,True,1,1
112,50,41,!splow,!coc_Milch,45,X,"""X""",819,True,1,1
112,51,51,!sphigh,!clo_towe,24,O,"""O""",540,True,1,1
112,52,28,!splow,!clo_radi,45,X,"""X""",553,True,1,1
112,53,68,!sphigh,!chu_stee,24,O,"""O""",553,True,1,1
112,54,74,!splow,!chu_Kirchenbank,45,X,"""X""",635,True,1,1
112,55,84,!sphigh,!ste_ligh,24,O,"""O""",504,True,1,1
112,56,101,!splow,!ste_cor,45,X,"""X""",680,True,1,1
112,57,19,!sphigh,!flo_Lampee,24,O,"""O""",750,True,1,1
112,58,20,!splow,!flo_Läufer,45,X,"""X""",781,True,1,1
112,59,25,!sphigh,!tro_buck,24,O,"""O""",573,True,1,1
112,60,119,!splow,!tro_Saum,45,X,"""X""",844,True,1,1
113,1,59,!sphigh,!Kuh_Hut,45,X,"""X""",510,True,1,1
113,2,29,!splow,!Kuh_Stiefel,24,O,"""O""",504,True,1,1
113,3,88,!sphigh,!sho_Duschkopf,45,X,"""X""",470,True,1,1
113,4,127,!splow,!sho_dRegen,24,O,"""O""",466,True,1,1
113,5,30,!sphigh,!ele_Ohr,45,X,"""X""",524,True,1,1
113,6,101,!splow,!ele_Fuß,24,O,"""O""",439,True,1,1
113,7,51,!sphigh,!tab_clot,45,X,"""X""",416,True,1,1
113,8,71,!splow,!tab_Bein,24,O,"""O""",337,True,1,1
113,9,126,!sphigh,!hou_atti,45,X,"""X""",482,True,1,1
113,10,49,!splow,!hou_cell,24,O,"""O""",489,True,1,1
113,11,75,!sphigh,!tre_leav,45,X,"""X""",444,True,1,1
113,12,64,!splow,!tre_root,24,O,"""O""",430,True,1,1
113,13,27,!sphigh,!sho_lace,45,X,"""X""",396,True,1,1
113,14,63,!splow,!sho_sole,24,O,"""O""",578,True,1,1
113,15,17,!sphigh,!des_Lampe,45,X,"""X""",385,True,1,2
113,16,108,!splow,!des_draw,24,O,"""O""",430,True,1,2
113,17,74,!sphigh,!bot_Deckel,45,X,"""X""",449,True,1,2
113,18,39,!splow,!bot_coas,24,O,"""O""",376,True,1,2
113,19,73,!sphigh,!oce_surf,45,X,"""X""",387,True,1,2
113,20,50,!splow,!oce_floo,24,O,"""O""",408,True,1,2
113,21,18,!sphigh,!Auto_wind,45,X,"""X""",341,True,1,2
113,22,48,!splow,!Auto_whee,24,O,"""O""",360,True,1,2
113,23,26,!sphigh,!cor_stal,45,X,"""X""",457,True,1,2
113,24,22,!splow,!cor_see,24,O,"""O""",424,True,1,2
113,25,41,!sphigh,!bea_snou,45,X,"""X""",359,True,1,2
113,26,80,!splow,!bea_Klaue,24,O,"""O""",386,True,1,2
113,27,60,!sphigh,!bir_Auge,45,X,"""X""",482,True,1,2
113,28,54,!splow,!bir_talo,24,O,"""O""",452,True,1,2
113,29,99,!sphigh,!hor_Mähne,24,O,"""X""",415,False,0,2
113,30,118,!splow,!hor_hoov,24,O,"""O""",497,True,1,2
113,31,33,!sphigh,!bic_Sitz,24,O,"""O""",432,True,1,2
113,32,115,!splow,!bic_Reifen,45,X,"""X""",602,True,1,2
113,33,96,!sphigh,!bed_curt,24,O,"""O""",408,True,1,2
113,34,107,!splow,!bed_Autop,45,X,"""X""",466,True,1,2
113,35,67,!sphigh,!flo_peta,24,O,"""O""",558,True,1,2
113,36,19,!splow,!flo_Stiel,45,X,"""X""",454,True,1,2
113,37,70,!sphigh,!hot_Dach,24,O,"""O""",467,True,1,2
113,38,55,!splow,!hot_lobb,45,X,"""X""",397,True,1,2
113,39,112,!sphigh,!mus_Deckel,24,O,"""O""",372,True,1,2
113,40,84,!splow,!mus_stal,45,X,"""X""",439,True,1,2
113,41,53,!sphigh,!bro_hand,24,O,"""O""",479,True,1,2
113,42,104,!splow,!bro_bris,45,X,"""X""",387,True,1,2
113,43,97,!sphigh,!mou_Gipfel,24,O,"""O""",408,True,1,2
113,44,66,!splow,!mou_Tal,45,X,"""X""",432,True,1,2
113,45,100,!sphigh,!rai_clou,24,O,"""O""",454,True,1,1
113,46,86,!splow,!rai_pudd,45,X,"""X""",415,True,1,1
113,47,47,!sphigh,!Hund_coll,24,O,"""O""",410,True,1,1
113,48,102,!splow,!Hund_paw,45,X,"""X""",571,True,1,1
113,49,130,!sphigh,!coc_Baum,24,O,"""O""",448,True,1,1
113,50,13,!splow,!coc_Milch,45,X,"""X""",684,True,1,1
113,51,78,!sphigh,!clo_towe,24,O,"""O""",295,True,1,1
113,52,120,!splow,!clo_radi,45,X,"""X""",390,True,1,1
113,53,119,!sphigh,!chu_stee,24,O,"""O""",318,True,1,1
113,54,42,!splow,!chu_Kirchenbank,45,X,"""X""",523,True,1,1
113,55,87,!sphigh,!ste_ligh,24,O,"""O""",408,True,1,1
113,56,85,!splow,!ste_cor,45,X,"""X""",397,True,1,1
113,57,69,!sphigh,!flo_Lampee,24,O,"""O""",366,True,1,1
113,58,56,!splow,!flo_Läufer,45,X,"""X""",445,True,1,1
113,59,132,!sphigh,!tro_buck,24,O,"""O""",496,True,1,1
113,60,72,!splow,!tro_Saum,45,X,"""X""",413,True,1,1

